# Wavelength     Net Transmission of Flats + Window + 9 lenses including Absorption  (1=100%)
      800.000    0.0875000
      800.500    0.0913000
      801.000    0.0954000
      801.500    0.0995000
      802.000     0.103900
      802.500     0.108200
      803.000     0.112700
      803.500     0.117400
      804.000     0.122200
      804.500     0.126900
      805.000     0.131900
      805.500     0.137000
      806.000     0.142200
      806.500     0.147300
      807.000     0.152500
      807.500     0.157800
      808.000     0.163300
      808.500     0.168000
      809.000     0.172800
      809.500     0.177700
      810.000     0.182700
      810.500     0.187100
      811.000     0.191500
      811.500     0.196000
      812.000     0.200700
      812.500     0.206100
      813.000     0.211600
      813.500     0.217200
      814.000     0.223000
      814.500     0.228600
      815.000     0.234300
      815.500     0.240200
      816.000     0.246200
      816.500     0.251300
      817.000     0.256400
      817.500     0.261700
      818.000     0.267100
      818.500     0.272500
      819.000     0.278000
      819.500     0.283700
      820.000     0.289400
      820.500     0.292100
      821.000     0.294700
      821.500     0.297400
      822.000     0.300200
      822.500     0.305500
      823.000     0.310900
      823.500     0.316400
      824.000     0.322000
      824.500     0.325800
      825.000     0.329700
      825.500     0.333600
      826.000     0.337500
      826.500     0.340400
      827.000     0.343400
      827.500     0.346400
      828.000     0.349400
      828.500     0.351000
      829.000     0.352600
      829.500     0.354200
      830.000     0.355800
      830.500     0.359200
      831.000     0.362700
      831.500     0.366100
      832.000     0.369600
      832.500     0.371700
      833.000     0.373900
      833.500     0.376100
      834.000     0.378300
      834.500     0.381700
      835.000     0.385200
      835.500     0.388800
      836.000     0.392300
      836.500     0.393000
      837.000     0.393700
      837.500     0.394400
      838.000     0.395100
      838.500     0.394600
      839.000     0.394200
      839.500     0.393700
      840.000     0.393200
      840.500     0.394100
      841.000     0.395100
      841.500     0.396000
      842.000     0.397000
      842.500     0.396200
      843.000     0.395500
      843.500     0.394700
      844.000     0.394000
      844.500     0.386800
      845.000     0.379800
      845.500     0.372900
      846.000     0.366100
      846.500     0.349300
      847.000     0.333200
      847.500     0.317800
      848.000     0.303000
      848.500     0.330800
      849.000     0.360700
      849.500     0.393100
      850.000     0.427900
      850.500     0.427700
      851.000     0.427600
      851.500     0.427400
      852.000     0.427200
      852.500     0.426800
      853.000     0.426300
      853.500     0.425900
      854.000     0.425400
      854.500     0.425200
      855.000     0.424900
      855.500     0.424700
      856.000     0.424400
      856.500     0.424100
      857.000     0.423700
      857.500     0.423300
      858.000     0.422900
      858.500     0.422900
      859.000     0.422900
      859.500     0.422800
      860.000     0.422800
      860.500     0.422300
      861.000     0.421800
      861.500     0.421200
      862.000     0.420700
      862.500     0.419900
      863.000     0.419000
      863.500     0.418200
      864.000     0.417400
      864.500     0.417300
      865.000     0.417300
      865.500     0.417300
      866.000     0.417200
      866.500     0.417200
      867.000     0.417100
      867.500     0.417000
      868.000     0.416900
      868.500     0.416800
      869.000     0.416600
      869.500     0.416400
      870.000     0.416300
      870.500     0.415900
      871.000     0.415600
      871.500     0.415300
      872.000     0.415000
      872.500     0.415600
      873.000     0.416200
      873.500     0.416800
      874.000     0.417400
      874.500     0.417300
      875.000     0.417200
      875.500     0.417100
      876.000     0.417000
      876.500     0.417100
      877.000     0.417200
      877.500     0.417400
      878.000     0.417500
      878.500     0.417800
      879.000     0.418100
      879.500     0.418500
      880.000     0.418800
      880.500     0.418900
      881.000     0.419100
      881.500     0.419300
      882.000     0.419400
      882.500     0.420500
      883.000     0.421500
      883.500     0.422500
      884.000     0.423600
      884.500     0.424300
      885.000     0.424900
      885.500     0.425600
      886.000     0.426300
      886.500     0.426400
      887.000     0.426500
      887.500     0.426600
      888.000     0.426700
      888.500     0.426900
      889.000     0.427000
      889.500     0.427100
      890.000     0.427200
      890.500     0.427800
      891.000     0.428300
      891.500     0.428800
      892.000     0.429300
      892.500     0.430200
      893.000     0.431200
      893.500     0.432100
      894.000     0.433000
      894.500     0.433700
      895.000     0.434400
      895.500     0.435200
      896.000     0.435900
      896.500     0.436600
      897.000     0.437400
      897.500     0.438100
      898.000     0.438800
      898.500     0.439600
      899.000     0.440400
      899.500     0.441200
      900.000     0.442200
      900.500     0.443800
      901.000     0.445400
      901.500     0.447100
      902.000     0.448700
      902.500     0.449500
      903.000     0.450200
      903.500     0.451000
      904.000     0.451700
      904.500     0.452200
      905.000     0.452800
      905.500     0.453400
      906.000     0.454000
      906.500     0.455000
      907.000     0.456000
      907.500     0.457000
      908.000     0.458100
      908.500     0.459400
      909.000     0.460700
      909.500     0.461900
      910.000     0.463200
      910.500     0.464400
      911.000     0.465600
      911.500     0.466900
      912.000     0.468100
      912.500     0.469500
      913.000     0.470900
      913.500     0.472200
      914.000     0.473500
      914.500     0.474200
      915.000     0.474800
      915.500     0.475500
      916.000     0.476100
      916.500     0.477600
      917.000     0.479000
      917.500     0.480500
      918.000     0.482000
      918.500     0.482900
      919.000     0.483800
      919.500     0.484700
      920.000     0.485600
      920.500     0.486400
      921.000     0.487300
      921.500     0.488200
      922.000     0.489100
      922.500     0.490400
      923.000     0.491700
      923.500     0.492900
      924.000     0.494200
      924.500     0.495300
      925.000     0.496400
      925.500     0.497700
      926.000     0.499000
      926.500     0.501100
      927.000     0.503100
      927.500     0.505200
      928.000     0.507300
      928.500     0.509000
      929.000     0.510700
      929.500     0.512300
      930.000     0.513900
      930.500     0.514600
      931.000     0.515300
      931.500     0.516100
      932.000     0.516900
      932.500     0.517600
      933.000     0.518400
      933.500     0.519000
      934.000     0.519700
      934.500     0.520900
      935.000     0.522200
      935.500     0.523500
      936.000     0.524900
      936.500     0.527100
      937.000     0.529400
      937.500     0.531600
      938.000     0.533800
      938.500     0.534900
      939.000     0.536000
      939.500     0.537100
      940.000     0.538200
      940.500     0.538600
      941.000     0.538900
      941.500     0.539300
      942.000     0.539600
      942.500     0.540600
      943.000     0.541700
      943.500     0.542500
      944.000     0.543400
      944.500     0.543900
      945.000     0.544300
      945.500     0.544900
      946.000     0.545400
      946.500     0.547200
      947.000     0.549000
      947.500     0.550800
      948.000     0.552500
      948.500     0.554900
      949.000     0.557300
      949.500     0.559700
      950.000     0.562100
      950.500     0.562300
      951.000     0.562600
      951.500     0.562700
      952.000     0.562800
      952.500     0.564500
      953.000     0.566200
      953.500     0.567900
      954.000     0.569600
      954.500     0.570400
      955.000     0.571200
      955.500     0.572000
      956.000     0.572900
      956.500     0.574400
      957.000     0.575900
      957.500     0.577400
      958.000     0.578900
      958.500     0.579800
      959.000     0.580800
      959.500     0.581800
      960.000     0.582800
      960.500     0.583800
      961.000     0.584800
      961.500     0.585800
      962.000     0.586800
      962.500     0.588800
      963.000     0.590800
      963.500     0.592700
      964.000     0.594600
      964.500     0.595100
      965.000     0.595700
      965.500     0.596300
      966.000     0.596800
      966.500     0.597700
      967.000     0.598600
      967.500     0.599400
      968.000     0.600300
      968.500     0.600700
      969.000     0.601100
      969.500     0.601500
      970.000     0.602000
      970.500     0.602500
      971.000     0.603000
      971.500     0.603500
      972.000     0.604000
      972.500     0.605100
      973.000     0.606200
      973.500     0.607400
      974.000     0.608500
      974.500     0.609600
      975.000     0.610700
      975.500     0.611900
      976.000     0.613100
      976.500     0.613600
      977.000     0.614100
      977.500     0.614400
      978.000     0.614800
      978.500     0.615200
      979.000     0.615600
      979.500     0.616100
      980.000     0.616600
      980.500     0.616500
      981.000     0.616500
      981.500     0.616400
      982.000     0.616400
      982.500     0.617000
      983.000     0.617600
      983.500     0.618100
      984.000     0.618700
      984.500     0.619800
      985.000     0.621000
      985.500     0.622100
      986.000     0.623300
      986.500     0.624400
      987.000     0.625500
      987.500     0.626500
      988.000     0.627500
      988.500     0.629200
      989.000     0.630800
      989.500     0.632500
      990.000     0.634100
      990.500     0.634100
      991.000     0.634000
      991.500     0.633900
      992.000     0.633900
      992.500     0.633400
      993.000     0.632900
      993.500     0.632400
      994.000     0.631900
      994.500     0.633100
      995.000     0.634300
      995.500     0.635500
      996.000     0.636700
      996.500     0.638800
      997.000     0.640900
      997.500     0.642900
      998.000     0.644900
      998.500     0.645600
      999.000     0.646300
      999.500     0.647000
      1000.00     0.647800
      1000.50     0.647300
      1001.00     0.646800
      1001.50     0.646300
      1002.00     0.645800
      1002.50     0.645000
      1003.00     0.644200
      1003.50     0.643500
      1004.00     0.642700
      1004.50     0.642600
      1005.00     0.642600
      1005.50     0.642600
      1006.00     0.642500
      1006.50     0.642700
      1007.00     0.642900
      1007.50     0.643000
      1008.00     0.643100
      1008.50     0.643800
      1009.00     0.644500
      1009.50     0.645300
      1010.00     0.646100
      1010.50     0.646100
      1011.00     0.646100
      1011.50     0.646000
      1012.00     0.645900
      1012.50     0.645700
      1013.00     0.645600
      1013.50     0.645500
      1014.00     0.645400
      1014.50     0.644800
      1015.00     0.644100
      1015.50     0.643500
      1016.00     0.642800
      1016.50     0.643100
      1017.00     0.643300
      1017.50     0.643600
      1018.00     0.643900
      1018.50     0.645100
      1019.00     0.646300
      1019.50     0.647500
      1020.00     0.648800
      1020.50     0.649300
      1021.00     0.649800
      1021.50     0.650300
      1022.00     0.650800
      1022.50     0.652000
      1023.00     0.653100
      1023.50     0.654300
      1024.00     0.655600
      1024.50     0.655800
      1025.00     0.656000
      1025.50     0.656200
      1026.00     0.656400
      1026.50     0.656400
      1027.00     0.656400
      1027.50     0.656500
      1028.00     0.656500
      1028.50     0.657200
      1029.00     0.657800
      1029.50     0.658400
      1030.00     0.659000
      1030.50     0.659200
      1031.00     0.659400
      1031.50     0.659600
      1032.00     0.659800
      1032.50     0.660400
      1033.00     0.660900
      1033.50     0.661500
      1034.00     0.662000
      1034.50     0.662800
      1035.00     0.663600
      1035.50     0.664300
      1036.00     0.665000
      1036.50     0.664800
      1037.00     0.664500
      1037.50     0.664300
      1038.00     0.664100
      1038.50     0.663400
      1039.00     0.662800
      1039.50     0.662100
      1040.00     0.661400
      1040.50     0.661700
      1041.00     0.661900
      1041.50     0.662200
      1042.00     0.662400
      1042.50     0.662400
      1043.00     0.662300
      1043.50     0.662300
      1044.00     0.662200
      1044.50     0.661600
      1045.00     0.660900
      1045.50     0.660300
      1046.00     0.659600
      1046.50     0.659200
      1047.00     0.658700
      1047.50     0.658300
      1048.00     0.658000
      1048.50     0.659700
      1049.00     0.661400
      1049.50     0.663200
      1050.00     0.664900
      1050.50     0.665000
      1051.00     0.665200
      1051.50     0.665400
      1052.00     0.665600
      1052.50     0.665500
      1053.00     0.665400
      1053.50     0.665300
      1054.00     0.665200
      1054.50     0.665900
      1055.00     0.666600
      1055.50     0.667300
      1056.00     0.668000
      1056.50     0.669000
      1057.00     0.669900
      1057.50     0.670900
      1058.00     0.671800
      1058.50     0.672400
      1059.00     0.672900
      1059.50     0.673400
      1060.00     0.673900
      1060.50     0.674100
      1061.00     0.674200
      1061.50     0.674500
      1062.00     0.674700
      1062.50     0.675300
      1063.00     0.675800
      1063.50     0.676300
      1064.00     0.676900
      1064.50     0.676600
      1065.00     0.676300
      1065.50     0.676000
      1066.00     0.675700
      1066.50     0.674800
      1067.00     0.673900
      1067.50     0.672900
      1068.00     0.672000
      1068.50     0.673200
      1069.00     0.674400
      1069.50     0.675600
      1070.00     0.676800
      1070.50     0.676200
      1071.00     0.675500
      1071.50     0.674900
      1072.00     0.674200
      1072.50     0.673600
      1073.00     0.672900
      1073.50     0.672200
      1074.00     0.671500
      1074.50     0.672400
      1075.00     0.673300
      1075.50     0.674200
      1076.00     0.675100
      1076.50     0.675500
      1077.00     0.675900
      1077.50     0.676200
      1078.00     0.676600
      1078.50     0.676600
      1079.00     0.676600
      1079.50     0.676700
      1080.00     0.676700
      1080.50     0.676800
      1081.00     0.676800
      1081.50     0.676900
      1082.00     0.677000
      1082.50     0.677200
      1083.00     0.677400
      1083.50     0.677500
      1084.00     0.677700
      1084.50     0.679900
      1085.00     0.682200
      1085.50     0.684500
      1086.00     0.686700
      1086.50     0.687100
      1087.00     0.687500
      1087.50     0.687900
      1088.00     0.688200
      1088.50     0.688200
      1089.00     0.688200
      1089.50     0.688200
      1090.00     0.688100
      1090.50     0.688000
      1091.00     0.687900
      1091.50     0.687800
      1092.00     0.687800
      1092.50     0.687400
      1093.00     0.687000
      1093.50     0.686500
      1094.00     0.686100
      1094.50     0.683700
      1095.00     0.681300
      1095.50     0.678900
      1096.00     0.676500
      1096.50     0.678200
      1097.00     0.679900
      1097.50     0.681600
      1098.00     0.683300
      1098.50     0.685200
      1099.00     0.687100
      1099.50     0.689100
      1100.00     0.691200
      1100.50     0.689500
      1101.00     0.687800
      1101.50     0.686000
      1102.00     0.684300
      1102.50     0.684100
      1103.00     0.683900
      1103.50     0.683700
      1104.00     0.683500
      1104.50     0.684400
      1105.00     0.685300
      1105.50     0.686200
      1106.00     0.687200
      1106.50     0.688800
      1107.00     0.690500
      1107.50     0.692100
      1108.00     0.693800
      1108.50     0.695100
      1109.00     0.696300
      1109.50     0.697600
      1110.00     0.698800
      1110.50     0.698600
      1111.00     0.698400
      1111.50     0.698300
      1112.00     0.698100
      1112.50     0.699700
      1113.00     0.701300
      1113.50     0.703000
      1114.00     0.704600
      1114.50     0.704700
      1115.00     0.704700
      1115.50     0.704700
      1116.00     0.704700
      1116.50     0.702100
      1117.00     0.699400
      1117.50     0.696700
      1118.00     0.694000
      1118.50     0.691400
      1119.00     0.688700
      1119.50     0.686000
      1120.00     0.683400
      1120.50     0.684600
      1121.00     0.685700
      1121.50     0.686800
      1122.00     0.687900
      1122.50     0.688000
      1123.00     0.688000
      1123.50     0.688100
      1124.00     0.688200
      1124.50     0.687600
      1125.00     0.687000
      1125.50     0.686400
      1126.00     0.685800
      1126.50     0.687300
      1127.00     0.688800
      1127.50     0.690200
      1128.00     0.691700
      1128.50     0.694000
      1129.00     0.696400
      1129.50     0.698700
      1130.00     0.701100
      1130.50     0.702700
      1131.00     0.704400
      1131.50     0.706100
      1132.00     0.707900
      1132.50     0.707900
      1133.00     0.707900
      1133.50     0.707900
      1134.00     0.707900
      1134.50     0.708000
      1135.00     0.708100
      1135.50     0.708100
      1136.00     0.708100
      1136.50     0.708900
      1137.00     0.709700
      1137.50     0.710400
      1138.00     0.711200
      1138.50     0.711900
      1139.00     0.712600
      1139.50     0.713200
      1140.00     0.713800
      1140.50     0.712200
      1141.00     0.710600
      1141.50     0.709000
      1142.00     0.707500
      1142.50     0.707900
      1143.00     0.708400
      1143.50     0.708900
      1144.00     0.709400
      1144.50     0.711000
      1145.00     0.712600
      1145.50     0.714200
      1146.00     0.715800
      1146.50     0.715200
      1147.00     0.714500
      1147.50     0.713900
      1148.00     0.713200
      1148.50     0.712200
      1149.00     0.711200
      1149.50     0.710200
      1150.00     0.709100
      1150.50     0.709200
      1151.00     0.709300
      1151.50     0.709400
      1152.00     0.709400
      1152.50     0.709900
      1153.00     0.710300
      1153.50     0.710800
      1154.00     0.711200
      1154.50     0.711800
      1155.00     0.712500
      1155.50     0.713100
      1156.00     0.713800
      1156.50     0.713400
      1157.00     0.713000
      1157.50     0.712600
      1158.00     0.712200
      1158.50     0.711700
      1159.00     0.711100
      1159.50     0.710600
      1160.00     0.710000
      1160.50     0.710700
      1161.00     0.711500
      1161.50     0.712200
      1162.00     0.712900
      1162.50     0.712900
      1163.00     0.713000
      1163.50     0.713100
      1164.00     0.713100
      1164.50     0.713000
      1165.00     0.712800
      1165.50     0.712700
      1166.00     0.712600
      1166.50     0.713000
      1167.00     0.713400
      1167.50     0.713900
      1168.00     0.714300
      1168.50     0.715400
      1169.00     0.716500
      1169.50     0.717700
      1170.00     0.718800
      1170.50     0.719100
      1171.00     0.719500
      1171.50     0.719800
      1172.00     0.720200
      1172.50     0.719700
      1173.00     0.719200
      1173.50     0.718700
      1174.00     0.718200
      1174.50     0.718600
      1175.00     0.719000
      1175.50     0.719400
      1176.00     0.719800
      1176.50     0.720700
      1177.00     0.721600
      1177.50     0.722500
      1178.00     0.723400
      1178.50     0.723100
      1179.00     0.722800
      1179.50     0.722600
      1180.00     0.722400
      1180.50     0.721400
      1181.00     0.720400
      1181.50     0.719500
      1182.00     0.718500
      1182.50     0.718400
      1183.00     0.718200
      1183.50     0.718100
      1184.00     0.717900
      1184.50     0.718600
      1185.00     0.719400
      1185.50     0.720100
      1186.00     0.720800
      1186.50     0.720500
      1187.00     0.720200
      1187.50     0.719900
      1188.00     0.719500
      1188.50     0.719200
      1189.00     0.718800
      1189.50     0.718500
      1190.00     0.718200
      1190.50     0.718400
      1191.00     0.718700
      1191.50     0.718900
      1192.00     0.719200
      1192.50     0.719400
      1193.00     0.719600
      1193.50     0.719700
      1194.00     0.719900
      1194.50     0.719900
      1195.00     0.719900
      1195.50     0.720000
      1196.00     0.720000
      1196.50     0.720000
      1197.00     0.720000
      1197.50     0.720000
      1198.00     0.719900
      1198.50     0.719000
      1199.00     0.718100
      1199.50     0.717200
      1200.00     0.716300
      1200.50     0.716800
      1201.00     0.717300
      1201.50     0.717700
      1202.00     0.718200
      1202.50     0.718400
      1203.00     0.718700
      1203.50     0.718900
      1204.00     0.719100
      1204.50     0.719000
      1205.00     0.718800
      1205.50     0.718700
      1206.00     0.718500
      1206.50     0.718500
      1207.00     0.718500
      1207.50     0.718500
      1208.00     0.718500
      1208.50     0.718800
      1209.00     0.719100
      1209.50     0.719300
      1210.00     0.719600
      1210.50     0.720700
      1211.00     0.721900
      1211.50     0.723000
      1212.00     0.724100
      1212.50     0.724200
      1213.00     0.724300
      1213.50     0.724500
      1214.00     0.724600
      1214.50     0.724000
      1215.00     0.723400
      1215.50     0.722900
      1216.00     0.722400
      1216.50     0.722100
      1217.00     0.721900
      1217.50     0.721600
      1218.00     0.721400
      1218.50     0.720800
      1219.00     0.720200
      1219.50     0.719700
      1220.00     0.719100
      1220.50     0.718700
      1221.00     0.718300
      1221.50     0.717900
      1222.00     0.717600
      1222.50     0.718100
      1223.00     0.718700
      1223.50     0.719300
      1224.00     0.719900
      1224.50     0.720000
      1225.00     0.720100
      1225.50     0.720100
      1226.00     0.720200
      1226.50     0.719500
      1227.00     0.718900
      1227.50     0.718200
      1228.00     0.717500
      1228.50     0.717200
      1229.00     0.716900
      1229.50     0.716700
      1230.00     0.716400
      1230.50     0.716300
      1231.00     0.716200
      1231.50     0.716100
      1232.00     0.716000
      1232.50     0.715600
      1233.00     0.715200
      1233.50     0.714800
      1234.00     0.714400
      1234.50     0.714600
      1235.00     0.714900
      1235.50     0.715100
      1236.00     0.715400
      1236.50     0.716700
      1237.00     0.718000
      1237.50     0.719300
      1238.00     0.720600
      1238.50     0.720800
      1239.00     0.721100
      1239.50     0.721300
      1240.00     0.721600
      1240.50     0.720400
      1241.00     0.719100
      1241.50     0.717900
      1242.00     0.716700
      1242.50     0.715600
      1243.00     0.714500
      1243.50     0.713400
      1244.00     0.712400
      1244.50     0.712800
      1245.00     0.713300
      1245.50     0.713800
      1246.00     0.714300
      1246.50     0.714900
      1247.00     0.715600
      1247.50     0.716300
      1248.00     0.717000
      1248.50     0.716900
      1249.00     0.716800
      1249.50     0.716700
      1250.00     0.716600
      1250.50     0.716700
      1251.00     0.716800
      1251.50     0.716800
      1252.00     0.716900
      1252.50     0.716600
      1253.00     0.716300
      1253.50     0.715900
      1254.00     0.715600
      1254.50     0.716000
      1255.00     0.716500
      1255.50     0.716900
      1256.00     0.717400
      1256.50     0.717800
      1257.00     0.718100
      1257.50     0.718500
      1258.00     0.718900
      1258.50     0.717800
      1259.00     0.716700
      1259.50     0.715600
      1260.00     0.714500
      1260.50     0.713300
      1261.00     0.712000
      1261.50     0.710700
      1262.00     0.709400
      1262.50     0.709800
      1263.00     0.710100
      1263.50     0.710500
      1264.00     0.710900
      1264.50     0.711900
      1265.00     0.712800
      1265.50     0.713800
      1266.00     0.714700
      1266.50     0.714500
      1267.00     0.714200
      1267.50     0.714000
      1268.00     0.713700
      1268.50     0.713900
      1269.00     0.714000
      1269.50     0.714200
      1270.00     0.714400
      1270.50     0.714900
      1271.00     0.715300
      1271.50     0.715800
      1272.00     0.716200
      1272.50     0.715900
      1273.00     0.715600
      1273.50     0.715400
      1274.00     0.715100
      1274.50     0.714600
      1275.00     0.714100
      1275.50     0.713500
      1276.00     0.712900
      1276.50     0.713000
      1277.00     0.713100
      1277.50     0.713200
      1278.00     0.713300
      1278.50     0.713400
      1279.00     0.713500
      1279.50     0.713500
      1280.00     0.713600
      1280.50     0.714000
      1281.00     0.714500
      1281.50     0.715000
      1282.00     0.715500
      1282.50     0.714900
      1283.00     0.714300
      1283.50     0.713800
      1284.00     0.713200
      1284.50     0.713400
      1285.00     0.713600
      1285.50     0.713800
      1286.00     0.714000
      1286.50     0.715200
      1287.00     0.716400
      1287.50     0.717600
      1288.00     0.718900
      1288.50     0.719300
      1289.00     0.719700
      1289.50     0.720100
      1290.00     0.720500
      1290.50     0.721100
      1291.00     0.721700
      1291.50     0.722400
      1292.00     0.723100
      1292.50     0.722500
      1293.00     0.721900
      1293.50     0.721300
      1294.00     0.720700
      1294.50     0.719400
      1295.00     0.718100
      1295.50     0.716900
      1296.00     0.715600
      1296.50     0.715800
      1297.00     0.716000
      1297.50     0.716100
      1298.00     0.716300
      1298.50     0.715700
      1299.00     0.715200
      1299.50     0.714700
      1300.00     0.714100
      1300.50     0.713800
      1301.00     0.713500
      1301.50     0.713200
      1302.00     0.712900
      1302.50     0.712400
      1303.00     0.711900
      1303.50     0.711400
      1304.00     0.710900
      1304.50     0.710900
      1305.00     0.710900
      1305.50     0.711000
      1306.00     0.711000
      1306.50     0.711300
      1307.00     0.711700
      1307.50     0.712000
      1308.00     0.712400
      1308.50     0.713400
      1309.00     0.714400
      1309.50     0.715400
      1310.00     0.716400
      1310.50     0.716700
      1311.00     0.717100
      1311.50     0.717500
      1312.00     0.717900
      1312.50     0.717500
      1313.00     0.717100
      1313.50     0.716700
      1314.00     0.716300
      1314.50     0.715600
      1315.00     0.714900
      1315.50     0.714200
      1316.00     0.713500
      1316.50     0.713800
      1317.00     0.714200
      1317.50     0.714500
      1318.00     0.714800
      1318.50     0.715500
      1319.00     0.716200
      1319.50     0.716900
      1320.00     0.717600
      1320.50     0.717600
      1321.00     0.717700
      1321.50     0.717800
      1322.00     0.717900
      1322.50     0.717700
      1323.00     0.717600
      1323.50     0.717400
      1324.00     0.717200
      1324.50     0.717300
      1325.00     0.717300
      1325.50     0.717400
      1326.00     0.717500
      1326.50     0.718100
      1327.00     0.718600
      1327.50     0.719200
      1328.00     0.719700
      1328.50     0.719300
      1329.00     0.718800
      1329.50     0.718400
      1330.00     0.717900
      1330.50     0.718500
      1331.00     0.719100
      1331.50     0.719800
      1332.00     0.720400
      1332.50     0.720400
      1333.00     0.720500
      1333.50     0.720600
      1334.00     0.720700
      1334.50     0.720000
      1335.00     0.719400
      1335.50     0.718700
      1336.00     0.718000
      1336.50     0.718400
      1337.00     0.718800
      1337.50     0.719200
      1338.00     0.719500
      1338.50     0.720100
      1339.00     0.720600
      1339.50     0.721200
      1340.00     0.721700
      1340.50     0.722000
      1341.00     0.722300
      1341.50     0.722500
      1342.00     0.722800
      1342.50     0.723500
      1343.00     0.724200
      1343.50     0.724900
      1344.00     0.725700
      1344.50     0.725400
      1345.00     0.725200
      1345.50     0.724900
      1346.00     0.724600
      1346.50     0.724200
      1347.00     0.723900
      1347.50     0.723500
      1348.00     0.723200
      1348.50     0.724000
      1349.00     0.724800
      1349.50     0.725500
      1350.00     0.726300
      1350.50     0.727800
      1351.00     0.729400
      1351.50     0.731000
      1352.00     0.732600
      1352.50     0.731600
      1353.00     0.730600
      1353.50     0.729500
      1354.00     0.728500
      1354.50     0.728500
      1355.00     0.728400
      1355.50     0.728300
      1356.00     0.728200
      1356.50     0.728600
      1357.00     0.729000
      1357.50     0.729400
      1358.00     0.729800
      1358.50     0.729900
      1359.00     0.730100
      1359.50     0.730200
      1360.00     0.730300
      1360.50     0.731200
      1361.00     0.732200
      1361.50     0.733100
      1362.00     0.734100
      1362.50     0.734000
      1363.00     0.733900
      1363.50     0.733700
      1364.00     0.733600
      1364.50     0.733400
      1365.00     0.733300
      1365.50     0.733100
      1366.00     0.732900
      1366.50     0.732900
      1367.00     0.732800
      1367.50     0.732800
      1368.00     0.732700
      1368.50     0.732400
      1369.00     0.732100
      1369.50     0.731700
      1370.00     0.731300
      1370.50     0.729700
      1371.00     0.728000
      1371.50     0.726400
      1372.00     0.724800
      1372.50     0.726200
      1373.00     0.727700
      1373.50     0.729100
      1374.00     0.730500
      1374.50     0.731500
      1375.00     0.732500
      1375.50     0.733400
      1376.00     0.734400
      1376.50     0.734600
      1377.00     0.734900
      1377.50     0.735100
      1378.00     0.735400
      1378.50     0.733900
      1379.00     0.732300
      1379.50     0.730800
      1380.00     0.729200
      1380.50     0.730500
      1381.00     0.731900
      1381.50     0.733200
      1382.00     0.734600
      1382.50     0.735800
      1383.00     0.737000
      1383.50     0.738200
      1384.00     0.739500
      1384.50     0.739100
      1385.00     0.738800
      1385.50     0.738500
      1386.00     0.738200
      1386.50     0.738400
      1387.00     0.738600
      1387.50     0.738900
      1388.00     0.739100
      1388.50     0.739500
      1389.00     0.739900
      1389.50     0.740300
      1390.00     0.740600
      1390.50     0.740700
      1391.00     0.740700
      1391.50     0.740900
      1392.00     0.741000
      1392.50     0.742100
      1393.00     0.743300
      1393.50     0.744300
      1394.00     0.745400
      1394.50     0.746000
      1395.00     0.746600
      1395.50     0.747200
      1396.00     0.747800
      1396.50     0.747800
      1397.00     0.747800
      1397.50     0.747800
      1398.00     0.747800
      1398.50     0.748100
      1399.00     0.748300
      1399.50     0.748700
      1400.00     0.749000
      1400.50     0.750100
      1401.00     0.751200
      1401.50     0.752300
      1402.00     0.753400
      1402.50     0.754100
      1403.00     0.754900
      1403.50     0.755600
      1404.00     0.756400
      1404.50     0.756400
      1405.00     0.756400
      1405.50     0.756400
      1406.00     0.756500
      1406.50     0.756200
      1407.00     0.755900
      1407.50     0.755600
      1408.00     0.755200
      1408.50     0.755900
      1409.00     0.756600
      1409.50     0.757200
      1410.00     0.757800
      1410.50     0.759000
      1411.00     0.760200
      1411.50     0.761400
      1412.00     0.762600
      1412.50     0.762700
      1413.00     0.762700
      1413.50     0.762700
      1414.00     0.762800
      1414.50     0.762300
      1415.00     0.761900
      1415.50     0.761400
      1416.00     0.760900
      1416.50     0.761100
      1417.00     0.761400
      1417.50     0.761600
      1418.00     0.761900
      1418.50     0.761300
      1419.00     0.760800
      1419.50     0.760200
      1420.00     0.759600
      1420.50     0.759100
      1421.00     0.758500
      1421.50     0.758000
      1422.00     0.757500
      1422.50     0.757400
      1423.00     0.757300
      1423.50     0.757200
      1424.00     0.757100
      1424.50     0.757900
      1425.00     0.758700
      1425.50     0.759500
      1426.00     0.760400
      1426.50     0.761900
      1427.00     0.763500
      1427.50     0.765000
      1428.00     0.766500
      1428.50     0.767500
      1429.00     0.768500
      1429.50     0.769500
      1430.00     0.770500
      1430.50     0.770000
      1431.00     0.769500
      1431.50     0.769000
      1432.00     0.768600
      1432.50     0.769100
      1433.00     0.769500
      1433.50     0.770100
      1434.00     0.770600
      1434.50     0.770900
      1435.00     0.771200
      1435.50     0.771500
      1436.00     0.771800
      1436.50     0.772800
      1437.00     0.773700
      1437.50     0.774600
      1438.00     0.775500
      1438.50     0.775100
      1439.00     0.774700
      1439.50     0.774300
      1440.00     0.773900
      1440.50     0.773300
      1441.00     0.772700
      1441.50     0.772100
      1442.00     0.771500
      1442.50     0.772200
      1443.00     0.773000
      1443.50     0.773700
      1444.00     0.774500
      1444.50     0.774700
      1445.00     0.775000
      1445.50     0.775200
      1446.00     0.775500
      1446.50     0.777000
      1447.00     0.778400
      1447.50     0.779900
      1448.00     0.781400
      1448.50     0.780700
      1449.00     0.779900
      1449.50     0.779200
      1450.00     0.778400
      1450.50     0.778400
      1451.00     0.778400
      1451.50     0.778300
      1452.00     0.778300
      1452.50     0.778400
      1453.00     0.778500
      1453.50     0.778500
      1454.00     0.778600
      1454.50     0.779600
      1455.00     0.780600
      1455.50     0.781600
      1456.00     0.782600
      1456.50     0.782300
      1457.00     0.782000
      1457.50     0.781700
      1458.00     0.781300
      1458.50     0.779900
      1459.00     0.778600
      1459.50     0.777200
      1460.00     0.775800
      1460.50     0.777000
      1461.00     0.778300
      1461.50     0.779500
      1462.00     0.780700
      1462.50     0.782600
      1463.00     0.784500
      1463.50     0.786400
      1464.00     0.788300
      1464.50     0.788600
      1465.00     0.789000
      1465.50     0.789300
      1466.00     0.789600
      1466.50     0.789000
      1467.00     0.788500
      1467.50     0.787800
      1468.00     0.787200
      1468.50     0.787900
      1469.00     0.788700
      1469.50     0.789500
      1470.00     0.790400
      1470.50     0.791500
      1471.00     0.792600
      1471.50     0.793700
      1472.00     0.794900
      1472.50     0.795500
      1473.00     0.796100
      1473.50     0.796800
      1474.00     0.797400
      1474.50     0.797200
      1475.00     0.797000
      1475.50     0.796800
      1476.00     0.796500
      1476.50     0.795400
      1477.00     0.794400
      1477.50     0.793300
      1478.00     0.792200
      1478.50     0.793100
      1479.00     0.793900
      1479.50     0.794700
      1480.00     0.795600
      1480.50     0.796200
      1481.00     0.796800
      1481.50     0.797400
      1482.00     0.798000
      1482.50     0.799300
      1483.00     0.800700
      1483.50     0.802100
      1484.00     0.803500
      1484.50     0.803400
      1485.00     0.803200
      1485.50     0.803000
      1486.00     0.802800
      1486.50     0.802000
      1487.00     0.801100
      1487.50     0.800400
      1488.00     0.799700
      1488.50     0.800000
      1489.00     0.800300
      1489.50     0.800600
      1490.00     0.800900
      1490.50     0.800900
      1491.00     0.800900
      1491.50     0.800900
      1492.00     0.801000
      1492.50     0.801500
      1493.00     0.802000
      1493.50     0.802500
      1494.00     0.803000
      1494.50     0.803200
      1495.00     0.803500
      1495.50     0.803800
      1496.00     0.804000
      1496.50     0.803300
      1497.00     0.802700
      1497.50     0.802000
      1498.00     0.801400
      1498.50     0.798800
      1499.00     0.796200
      1499.50     0.793600
      1500.00     0.791000
      1500.50     0.792400
      1501.00     0.793800
      1501.50     0.795200
      1502.00     0.796600
      1502.50     0.798500
      1503.00     0.800300
      1503.50     0.802200
      1504.00     0.804000
      1504.50     0.804800
      1505.00     0.805500
      1505.50     0.806300
      1506.00     0.807000
      1506.50     0.807100
      1507.00     0.807200
      1507.50     0.807400
      1508.00     0.807500
      1508.50     0.807600
      1509.00     0.807600
      1509.50     0.807600
      1510.00     0.807600
      1510.50     0.807700
      1511.00     0.807800
      1511.50     0.808000
      1512.00     0.808100
      1512.50     0.808700
      1513.00     0.809200
      1513.50     0.809800
      1514.00     0.810400
      1514.50     0.810700
      1515.00     0.811100
      1515.50     0.811400
      1516.00     0.811800
      1516.50     0.811600
      1517.00     0.811500
      1517.50     0.811400
      1518.00     0.811300
      1518.50     0.811800
      1519.00     0.812400
      1519.50     0.813000
      1520.00     0.813500
      1520.50     0.813900
      1521.00     0.814200
      1521.50     0.814600
      1522.00     0.814900
      1522.50     0.815300
      1523.00     0.815800
      1523.50     0.816200
      1524.00     0.816600
      1524.50     0.814600
      1525.00     0.812600
      1525.50     0.810600
      1526.00     0.808600
      1526.50     0.807800
      1527.00     0.807100
      1527.50     0.806200
      1528.00     0.805400
      1528.50     0.806700
      1529.00     0.808100
      1529.50     0.809400
      1530.00     0.810700
      1530.50     0.811600
      1531.00     0.812500
      1531.50     0.813400
      1532.00     0.814300
      1532.50     0.813700
      1533.00     0.813200
      1533.50     0.812600
      1534.00     0.812000
      1534.50     0.811500
      1535.00     0.810900
      1535.50     0.810300
      1536.00     0.809600
      1536.50     0.810100
      1537.00     0.810600
      1537.50     0.811100
      1538.00     0.811500
      1538.50     0.811900
      1539.00     0.812300
      1539.50     0.812700
      1540.00     0.813100
      1540.50     0.812600
      1541.00     0.812200
      1541.50     0.811800
      1542.00     0.811400
      1542.50     0.812500
      1543.00     0.813700
      1543.50     0.814800
      1544.00     0.816000
      1544.50     0.817000
      1545.00     0.818100
      1545.50     0.819000
      1546.00     0.820000
      1546.50     0.820200
      1547.00     0.820400
      1547.50     0.820600
      1548.00     0.820800
      1548.50     0.823900
      1549.00     0.827000
      1549.50     0.830000
      1550.00     0.833100
      1550.50     0.831700
      1551.00     0.830400
      1551.50     0.829100
      1552.00     0.827800
      1552.50     0.825700
      1553.00     0.823700
      1553.50     0.821600
      1554.00     0.819600
      1554.50     0.820700
      1555.00     0.821900
      1555.50     0.823100
      1556.00     0.824200
      1556.50     0.823600
      1557.00     0.823100
      1557.50     0.822500
      1558.00     0.821900
      1558.50     0.821100
      1559.00     0.820200
      1559.50     0.819300
      1560.00     0.818400
      1560.50     0.818400
      1561.00     0.818300
      1561.50     0.818400
      1562.00     0.818500
      1562.50     0.818400
      1563.00     0.818300
      1563.50     0.818100
      1564.00     0.818000
      1564.50     0.817700
      1565.00     0.817400
      1565.50     0.817200
      1566.00     0.817000
      1566.50     0.816400
      1567.00     0.815700
      1567.50     0.815100
      1568.00     0.814400
      1568.50     0.815200
      1569.00     0.816000
      1569.50     0.816800
      1570.00     0.817700
      1570.50     0.818200
      1571.00     0.818800
      1571.50     0.819400
      1572.00     0.820000
      1572.50     0.821600
      1573.00     0.823200
      1573.50     0.824800
      1574.00     0.826400
      1574.50     0.824200
      1575.00     0.822000
      1575.50     0.819800
      1576.00     0.817700
      1576.50     0.817000
      1577.00     0.816300
      1577.50     0.815500
      1578.00     0.814800
      1578.50     0.816400
      1579.00     0.818000
      1579.50     0.819600
      1580.00     0.821200
      1580.50     0.821700
      1581.00     0.822100
      1581.50     0.822600
      1582.00     0.823000
      1582.50     0.823700
      1583.00     0.824500
      1583.50     0.825200
      1584.00     0.825900
      1584.50     0.824600
      1585.00     0.823300
      1585.50     0.822100
      1586.00     0.820800
      1586.50     0.819800
      1587.00     0.818700
      1587.50     0.817700
      1588.00     0.816600
      1588.50     0.817500
      1589.00     0.818400
      1589.50     0.819400
      1590.00     0.820300
      1590.50     0.820300
      1591.00     0.820400
      1591.50     0.820500
      1592.00     0.820600
      1592.50     0.822900
      1593.00     0.825300
      1593.50     0.827800
      1594.00     0.830200
      1594.50     0.828000
      1595.00     0.825900
      1595.50     0.823800
      1596.00     0.821600
      1596.50     0.820100
      1597.00     0.818500
      1597.50     0.816900
      1598.00     0.815300
      1598.50     0.814500
      1599.00     0.813700
      1599.50     0.813000
      1600.00     0.812200
      1600.50     0.812100
      1601.00     0.811900
      1601.50     0.811700
      1602.00     0.811500
      1602.50     0.811100
      1603.00     0.810700
      1603.50     0.810300
      1604.00     0.809900
      1604.50     0.809900
      1605.00     0.809800
      1605.50     0.809700
      1606.00     0.809600
      1606.50     0.809300
      1607.00     0.809000
      1607.50     0.808700
      1608.00     0.808500
      1608.50     0.808800
      1609.00     0.809100
      1609.50     0.809400
      1610.00     0.809600
      1610.50     0.810700
      1611.00     0.811800
      1611.50     0.812900
      1612.00     0.814000
      1612.50     0.814100
      1613.00     0.814200
      1613.50     0.814400
      1614.00     0.814500
      1614.50     0.814300
      1615.00     0.814000
      1615.50     0.813800
      1616.00     0.813500
      1616.50     0.814100
      1617.00     0.814700
      1617.50     0.815200
      1618.00     0.815800
      1618.50     0.815300
      1619.00     0.814900
      1619.50     0.814500
      1620.00     0.814000
      1620.50     0.813500
      1621.00     0.812900
      1621.50     0.812400
      1622.00     0.811800
      1622.50     0.811600
      1623.00     0.811300
      1623.50     0.811100
      1624.00     0.810800
      1624.50     0.810400
      1625.00     0.810000
      1625.50     0.809500
      1626.00     0.809100
      1626.50     0.810400
      1627.00     0.811600
      1627.50     0.812900
      1628.00     0.814300
      1628.50     0.817700
      1629.00     0.821100
      1629.50     0.824400
      1630.00     0.827800
      1630.50     0.825300
      1631.00     0.822800
      1631.50     0.820300
      1632.00     0.817700
      1632.50     0.815600
      1633.00     0.813400
      1633.50     0.811300
      1634.00     0.809100
      1634.50     0.808500
      1635.00     0.807800
      1635.50     0.807100
      1636.00     0.806500
      1636.50     0.806000
      1637.00     0.805500
      1637.50     0.805100
      1638.00     0.804700
      1638.50     0.804000
      1639.00     0.803400
      1639.50     0.802700
      1640.00     0.801900
      1640.50     0.801300
      1641.00     0.800700
      1641.50     0.800100
      1642.00     0.799500
      1642.50     0.800200
      1643.00     0.800800
      1643.50     0.801500
      1644.00     0.802200
      1644.50     0.802300
      1645.00     0.802500
      1645.50     0.802600
      1646.00     0.802700
      1646.50     0.803100
      1647.00     0.803600
      1647.50     0.804000
      1648.00     0.804400
      1648.50     0.804200
      1649.00     0.804000
      1649.50     0.803700
      1650.00     0.803500
      1650.50     0.802900
      1651.00     0.802300
      1651.50     0.801700
      1652.00     0.801000
      1652.50     0.801300
      1653.00     0.801600
      1653.50     0.801900
      1654.00     0.802200
      1654.50     0.804000
      1655.00     0.805700
      1655.50     0.807500
      1656.00     0.809300
      1656.50     0.808500
      1657.00     0.807700
      1657.50     0.806900
      1658.00     0.806100
      1658.50     0.803700
      1659.00     0.801400
      1659.50     0.799000
      1660.00     0.796600
      1660.50     0.797700
      1661.00     0.798700
      1661.50     0.799800
      1662.00     0.800800
      1662.50     0.802200
      1663.00     0.803600
      1663.50     0.805000
      1664.00     0.806400
      1664.50     0.806800
      1665.00     0.807100
      1665.50     0.807500
      1666.00     0.807900
      1666.50     0.806400
      1667.00     0.804900
      1667.50     0.803400
      1668.00     0.802000
      1668.50     0.800300
      1669.00     0.798600
      1669.50     0.796900
      1670.00     0.795200
      1670.50     0.793900
      1671.00     0.792700
      1671.50     0.791400
      1672.00     0.790100
      1672.50     0.789900
      1673.00     0.789700
      1673.50     0.789500
      1674.00     0.789300
      1674.50     0.789400
      1675.00     0.789500
      1675.50     0.789600
      1676.00     0.789600
      1676.50     0.789200
      1677.00     0.788800
      1677.50     0.788300
      1678.00     0.787900
      1678.50     0.787700
      1679.00     0.787400
      1679.50     0.787200
      1680.00     0.786900
      1680.50     0.786500
      1681.00     0.786100
      1681.50     0.785700
      1682.00     0.785300
      1682.50     0.784400
      1683.00     0.783500
      1683.50     0.782600
      1684.00     0.781700
      1684.50     0.781100
      1685.00     0.780400
      1685.50     0.779800
      1686.00     0.779200
      1686.50     0.779800
      1687.00     0.780500
      1687.50     0.781100
      1688.00     0.781800
      1688.50     0.784400
      1689.00     0.787000
      1689.50     0.789600
      1690.00     0.792200
      1690.50     0.791200
      1691.00     0.790300
      1691.50     0.789400
      1692.00     0.788500
      1692.50     0.787200
      1693.00     0.786000
      1693.50     0.784700
      1694.00     0.783400
      1694.50     0.784100
      1695.00     0.784700
      1695.50     0.785500
      1696.00     0.786200
      1696.50     0.786800
      1697.00     0.787500
      1697.50     0.788100
      1698.00     0.788700
      1698.50     0.788500
      1699.00     0.788200
      1699.50     0.788100
      1700.00     0.787900
      1700.50     0.787900
      1701.00     0.787800
      1701.50     0.787800
      1702.00     0.787800
      1702.50     0.787500
      1703.00     0.787200
      1703.50     0.786900
      1704.00     0.786700
      1704.50     0.786000
      1705.00     0.785300
      1705.50     0.784700
      1706.00     0.784000
      1706.50     0.781000
      1707.00     0.778100
      1707.50     0.775000
      1708.00     0.772000
      1708.50     0.769800
      1709.00     0.767600
      1709.50     0.765500
      1710.00     0.763400
      1710.50     0.763700
      1711.00     0.764000
      1711.50     0.764200
      1712.00     0.764400
      1712.50     0.764000
      1713.00     0.763700
      1713.50     0.763300
      1714.00     0.762900
      1714.50     0.763400
      1715.00     0.764000
      1715.50     0.764500
      1716.00     0.765000
      1716.50     0.765300
      1717.00     0.765600
      1717.50     0.765900
      1718.00     0.766200
      1718.50     0.766200
      1719.00     0.766100
      1719.50     0.766100
      1720.00     0.766100
      1720.50     0.765700
      1721.00     0.765400
      1721.50     0.765100
      1722.00     0.764700
      1722.50     0.764800
      1723.00     0.764800
      1723.50     0.764900
      1724.00     0.765000
      1724.50     0.766500
      1725.00     0.768000
      1725.50     0.769500
      1726.00     0.771100
      1726.50     0.771800
      1727.00     0.772500
      1727.50     0.773300
      1728.00     0.774000
      1728.50     0.774200
      1729.00     0.774400
      1729.50     0.774700
      1730.00     0.774900
      1730.50     0.774200
      1731.00     0.773500
      1731.50     0.772700
      1732.00     0.772000
      1732.50     0.771500
      1733.00     0.771000
      1733.50     0.770500
      1734.00     0.769900
      1734.50     0.769200
      1735.00     0.768500
      1735.50     0.767800
      1736.00     0.767000
      1736.50     0.767100
      1737.00     0.767200
      1737.50     0.767300
      1738.00     0.767400
      1738.50     0.767700
      1739.00     0.768000
      1739.50     0.768300
      1740.00     0.768600
      1740.50     0.768000
      1741.00     0.767500
      1741.50     0.766900
      1742.00     0.766300
      1742.50     0.766100
      1743.00     0.765800
      1743.50     0.765600
      1744.00     0.765400
      1744.50     0.762900
      1745.00     0.760500
      1745.50     0.758100
      1746.00     0.755600
      1746.50     0.754400
      1747.00     0.753200
      1747.50     0.752100
      1748.00     0.751000
      1748.50     0.751800
      1749.00     0.752600
      1749.50     0.753400
      1750.00     0.754300
      1750.50     0.752800
      1751.00     0.751300
      1751.50     0.749800
      1752.00     0.748300
      1752.50     0.747600
      1753.00     0.746800
      1753.50     0.746000
      1754.00     0.745200
      1754.50     0.745600
      1755.00     0.746000
      1755.50     0.746300
      1756.00     0.746600
      1756.50     0.746900
      1757.00     0.747100
      1757.50     0.747400
      1758.00     0.747700
      1758.50     0.748500
      1759.00     0.749200
      1759.50     0.749900
      1760.00     0.750600
      1760.50     0.750200
      1761.00     0.749700
      1761.50     0.749300
      1762.00     0.748800
      1762.50     0.748700
      1763.00     0.748500
      1763.50     0.748300
      1764.00     0.748100
      1764.50     0.750500
      1765.00     0.753000
      1765.50     0.755400
      1766.00     0.757800
      1766.50     0.757400
      1767.00     0.757000
      1767.50     0.756600
      1768.00     0.756200
      1768.50     0.755100
      1769.00     0.754000
      1769.50     0.753000
      1770.00     0.751900
      1770.50     0.751700
      1771.00     0.751500
      1771.50     0.751400
      1772.00     0.751300
      1772.50     0.750900
      1773.00     0.750500
      1773.50     0.750100
      1774.00     0.749600
      1774.50     0.750500
      1775.00     0.751300
      1775.50     0.752200
      1776.00     0.753100
      1776.50     0.753000
      1777.00     0.753000
      1777.50     0.752800
      1778.00     0.752700
      1778.50     0.751400
      1779.00     0.750200
      1779.50     0.749000
      1780.00     0.747800
      1780.50     0.747400
      1781.00     0.747000
      1781.50     0.746600
      1782.00     0.746200
      1782.50     0.746300
      1783.00     0.746400
      1783.50     0.746400
      1784.00     0.746500
      1784.50     0.745900
      1785.00     0.745300
      1785.50     0.744700
      1786.00     0.744100
      1786.50     0.743400
      1787.00     0.742700
      1787.50     0.742000
      1788.00     0.741300
      1788.50     0.740300
      1789.00     0.739400
      1789.50     0.738400
      1790.00     0.737500
      1790.50     0.736200
      1791.00     0.734800
      1791.50     0.733300
      1792.00     0.731900
      1792.50     0.731800
      1793.00     0.731700
      1793.50     0.731700
      1794.00     0.731600
      1794.50     0.733100
      1795.00     0.734500
      1795.50     0.735900
      1796.00     0.737200
      1796.50     0.737700
      1797.00     0.738200
      1797.50     0.738700
      1798.00     0.739200
      1798.50     0.739100
      1799.00     0.739000
      1799.50     0.738900
      1800.00     0.738900
      1800.50     0.739000
      1801.00     0.739200
      1801.50     0.739300
      1802.00     0.739400
      1802.50     0.740000
      1803.00     0.740600
      1803.50     0.741200
      1804.00     0.741900
      1804.50     0.741700
      1805.00     0.741600
      1805.50     0.741400
      1806.00     0.741300
      1806.50     0.740700
      1807.00     0.740100
      1807.50     0.739600
      1808.00     0.739200
      1808.50     0.738500
      1809.00     0.737900
      1809.50     0.737100
      1810.00     0.736400
      1810.50     0.738500
      1811.00     0.740700
      1811.50     0.742800
      1812.00     0.744900
      1812.50     0.744800
      1813.00     0.744800
      1813.50     0.744700
      1814.00     0.744700
      1814.50     0.744000
      1815.00     0.743400
      1815.50     0.742800
      1816.00     0.742100
      1816.50     0.741700
      1817.00     0.741200
      1817.50     0.740800
      1818.00     0.740400
      1818.50     0.739400
      1819.00     0.738400
      1819.50     0.737400
      1820.00     0.736300
      1820.50     0.735300
      1821.00     0.734200
      1821.50     0.733200
      1822.00     0.732100
      1822.50     0.732500
      1823.00     0.732900
      1823.50     0.733200
      1824.00     0.733500
      1824.50     0.732100
      1825.00     0.730700
      1825.50     0.729300
      1826.00     0.727900
      1826.50     0.726600
      1827.00     0.725300
      1827.50     0.723900
      1828.00     0.722600
      1828.50     0.723100
      1829.00     0.723600
      1829.50     0.724100
      1830.00     0.724600
      1830.50     0.725100
      1831.00     0.725500
      1831.50     0.725900
      1832.00     0.726400
      1832.50     0.726600
      1833.00     0.726800
      1833.50     0.727000
      1834.00     0.727200
      1834.50     0.727800
      1835.00     0.728300
      1835.50     0.728900
      1836.00     0.729500
      1836.50     0.730000
      1837.00     0.730600
      1837.50     0.731200
      1838.00     0.731800
      1838.50     0.731900
      1839.00     0.732000
      1839.50     0.732100
      1840.00     0.732100
      1840.50     0.732300
      1841.00     0.732500
      1841.50     0.732700
      1842.00     0.732800
      1842.50     0.733700
      1843.00     0.734600
      1843.50     0.735600
      1844.00     0.736600
      1844.50     0.736500
      1845.00     0.736400
      1845.50     0.736400
      1846.00     0.736300
      1846.50     0.735800
      1847.00     0.735200
      1847.50     0.734600
      1848.00     0.733900
      1848.50     0.733800
      1849.00     0.733700
      1849.50     0.733600
      1850.00     0.733400
      1850.50     0.732800
      1851.00     0.732200
      1851.50     0.731500
      1852.00     0.730800
      1852.50     0.730300
      1853.00     0.729900
      1853.50     0.729400
      1854.00     0.728900
      1854.50     0.728600
      1855.00     0.728400
      1855.50     0.728100
      1856.00     0.727800
      1856.50     0.728200
      1857.00     0.728500
      1857.50     0.728900
      1858.00     0.729200
      1858.50     0.728600
      1859.00     0.727900
      1859.50     0.727300
      1860.00     0.726700
      1860.50     0.725300
      1861.00     0.723800
      1861.50     0.722300
      1862.00     0.720800
      1862.50     0.720600
      1863.00     0.720300
      1863.50     0.720200
      1864.00     0.720000
      1864.50     0.720000
      1865.00     0.720100
      1865.50     0.720100
      1866.00     0.720200
      1866.50     0.720800
      1867.00     0.721400
      1867.50     0.722100
      1868.00     0.722700
      1868.50     0.722700
      1869.00     0.722700
      1869.50     0.722800
      1870.00     0.722900
      1870.50     0.724000
      1871.00     0.725100
      1871.50     0.726300
      1872.00     0.727400
      1872.50     0.728000
      1873.00     0.728700
      1873.50     0.729300
      1874.00     0.729900
      1874.50     0.730700
      1875.00     0.731400
      1875.50     0.732100
      1876.00     0.732800
      1876.50     0.732700
      1877.00     0.732500
      1877.50     0.732500
      1878.00     0.732500
      1878.50     0.733500
      1879.00     0.734500
      1879.50     0.735400
      1880.00     0.736300
      1880.50     0.736400
      1881.00     0.736500
      1881.50     0.736700
      1882.00     0.736900
      1882.50     0.735900
      1883.00     0.735000
      1883.50     0.734100
      1884.00     0.733200
      1884.50     0.731700
      1885.00     0.730100
      1885.50     0.728600
      1886.00     0.727000
      1886.50     0.726700
      1887.00     0.726400
      1887.50     0.726100
      1888.00     0.725900
      1888.50     0.725900
      1889.00     0.725900
      1889.50     0.726000
      1890.00     0.726200
      1890.50     0.726500
      1891.00     0.726800
      1891.50     0.727100
      1892.00     0.727300
      1892.50     0.727200
      1893.00     0.727100
      1893.50     0.726800
      1894.00     0.726500
      1894.50     0.726500
      1895.00     0.726600
      1895.50     0.726700
      1896.00     0.726800
      1896.50     0.726900
      1897.00     0.727100
      1897.50     0.727000
      1898.00     0.727000
      1898.50     0.726500
      1899.00     0.725900
      1899.50     0.725500
      1900.00     0.725000
      1900.50     0.724500
      1901.00     0.724000
      1901.50     0.723500
      1902.00     0.723000
      1902.50     0.723100
      1903.00     0.723300
      1903.50     0.723400
      1904.00     0.723500
      1904.50     0.723200
      1905.00     0.722800
      1905.50     0.722400
      1906.00     0.722000
      1906.50     0.721700
      1907.00     0.721300
      1907.50     0.720900
      1908.00     0.720600
      1908.50     0.722300
      1909.00     0.724100
      1909.50     0.725800
      1910.00     0.727600
      1910.50     0.727800
      1911.00     0.728000
      1911.50     0.728100
      1912.00     0.728300
      1912.50     0.728700
      1913.00     0.729100
      1913.50     0.729700
      1914.00     0.730200
      1914.50     0.729700
      1915.00     0.729200
      1915.50     0.728600
      1916.00     0.728000
      1916.50     0.727800
      1917.00     0.727700
      1917.50     0.727600
      1918.00     0.727500
      1918.50     0.727600
      1919.00     0.727700
      1919.50     0.727700
      1920.00     0.727700
      1920.50     0.727100
      1921.00     0.726500
      1921.50     0.726000
      1922.00     0.725500
      1922.50     0.725700
      1923.00     0.725900
      1923.50     0.726300
      1924.00     0.726700
      1924.50     0.727600
      1925.00     0.728400
      1925.50     0.729300
      1926.00     0.730100
      1926.50     0.729600
      1927.00     0.729100
      1927.50     0.728500
      1928.00     0.728000
      1928.50     0.727300
      1929.00     0.726600
      1929.50     0.725900
      1930.00     0.725200
      1930.50     0.724500
      1931.00     0.723800
      1931.50     0.723100
      1932.00     0.722400
      1932.50     0.722800
      1933.00     0.723100
      1933.50     0.723500
      1934.00     0.723800
      1934.50     0.724200
      1935.00     0.724500
      1935.50     0.725100
      1936.00     0.725600
      1936.50     0.726600
      1937.00     0.727600
      1937.50     0.728500
      1938.00     0.729400
      1938.50     0.729000
      1939.00     0.728600
      1939.50     0.728100
      1940.00     0.727600
      1940.50     0.727400
      1941.00     0.727300
      1941.50     0.727100
      1942.00     0.726900
      1942.50     0.727000
      1943.00     0.727100
      1943.50     0.727300
      1944.00     0.727400
      1944.50     0.727800
      1945.00     0.728100
      1945.50     0.728500
      1946.00     0.728900
      1946.50     0.728800
      1947.00     0.728800
      1947.50     0.728800
      1948.00     0.728700
      1948.50     0.730000
      1949.00     0.731200
      1949.50     0.732400
      1950.00     0.733700
      1950.50     0.733900
      1951.00     0.734000
      1951.50     0.734000
      1952.00     0.734000
      1952.50     0.733900
      1953.00     0.733900
      1953.50     0.733800
      1954.00     0.733700
      1954.50     0.733800
      1955.00     0.733800
      1955.50     0.733800
      1956.00     0.733800
      1956.50     0.735000
      1957.00     0.736200
      1957.50     0.737400
      1958.00     0.738600
      1958.50     0.738700
      1959.00     0.738800
      1959.50     0.738700
      1960.00     0.738700
      1960.50     0.737700
      1961.00     0.736700
      1961.50     0.735600
      1962.00     0.734400
      1962.50     0.734600
      1963.00     0.734800
      1963.50     0.735000
      1964.00     0.735200
      1964.50     0.735600
      1965.00     0.736000
      1965.50     0.736300
      1966.00     0.736700
      1966.50     0.736600
      1967.00     0.736600
      1967.50     0.736600
      1968.00     0.736600
      1968.50     0.735900
      1969.00     0.735200
      1969.50     0.734600
      1970.00     0.734000
      1970.50     0.733500
      1971.00     0.732900
      1971.50     0.732400
      1972.00     0.731900
      1972.50     0.731700
      1973.00     0.731500
      1973.50     0.731400
      1974.00     0.731300
      1974.50     0.731400
      1975.00     0.731500
      1975.50     0.731600
      1976.00     0.731700
      1976.50     0.732400
      1977.00     0.733100
      1977.50     0.733800
      1978.00     0.734600
      1978.50     0.735800
      1979.00     0.737100
      1979.50     0.738300
      1980.00     0.739600
      1980.50     0.739600
      1981.00     0.739600
      1981.50     0.739600
      1982.00     0.739600
      1982.50     0.740900
      1983.00     0.742200
      1983.50     0.743400
      1984.00     0.744700
      1984.50     0.743800
      1985.00     0.742800
      1985.50     0.741900
      1986.00     0.740900
      1986.50     0.740800
      1987.00     0.740700
      1987.50     0.740700
      1988.00     0.740700
      1988.50     0.742600
      1989.00     0.744500
      1989.50     0.746300
      1990.00     0.748100
      1990.50     0.747400
      1991.00     0.746700
      1991.50     0.746100
      1992.00     0.745500
      1992.50     0.745200
      1993.00     0.745000
      1993.50     0.744800
      1994.00     0.744600
      1994.50     0.745900
      1995.00     0.747100
      1995.50     0.748400
      1996.00     0.749700
      1996.50     0.750600
      1997.00     0.751400
      1997.50     0.752300
      1998.00     0.753200
      1998.50     0.753300
      1999.00     0.753500
      1999.50     0.753600
      2000.00     0.753700
      2000.50     0.753000
      2001.00     0.752200
      2001.50     0.751600
      2002.00     0.750900
      2002.50     0.751000
      2003.00     0.751000
      2003.50     0.751000
      2004.00     0.751000
      2004.50     0.751000
      2005.00     0.750900
      2005.50     0.750800
      2006.00     0.750800
      2006.50     0.750600
      2007.00     0.750500
      2007.50     0.750300
      2008.00     0.750100
      2008.50     0.749900
      2009.00     0.749800
      2009.50     0.749700
      2010.00     0.749600
      2010.50     0.749600
      2011.00     0.749600
      2011.50     0.749500
      2012.00     0.749400
      2012.50     0.749300
      2013.00     0.749200
      2013.50     0.749000
      2014.00     0.748900
      2014.50     0.748900
      2015.00     0.749000
      2015.50     0.749000
      2016.00     0.749100
      2016.50     0.748500
      2017.00     0.747900
      2017.50     0.747100
      2018.00     0.746400
      2018.50     0.746200
      2019.00     0.746100
      2019.50     0.746100
      2020.00     0.746100
      2020.50     0.746500
      2021.00     0.747000
      2021.50     0.747400
      2022.00     0.747900
      2022.50     0.749200
      2023.00     0.750500
      2023.50     0.751900
      2024.00     0.753400
      2024.50     0.753700
      2025.00     0.753900
      2025.50     0.754100
      2026.00     0.754400
      2026.50     0.754700
      2027.00     0.755000
      2027.50     0.755400
      2028.00     0.755700
      2028.50     0.756900
      2029.00     0.758100
      2029.50     0.759300
      2030.00     0.760400
      2030.50     0.760500
      2031.00     0.760600
      2031.50     0.760700
      2032.00     0.760700
      2032.50     0.760500
      2033.00     0.760200
      2033.50     0.760000
      2034.00     0.759700
      2034.50     0.759500
      2035.00     0.759300
      2035.50     0.759000
      2036.00     0.758600
      2036.50     0.758000
      2037.00     0.757400
      2037.50     0.756700
      2038.00     0.756100
      2038.50     0.755300
      2039.00     0.754500
      2039.50     0.753600
      2040.00     0.752700
      2040.50     0.751900
      2041.00     0.751100
      2041.50     0.750400
      2042.00     0.749700
      2042.50     0.749200
      2043.00     0.748700
      2043.50     0.748300
      2044.00     0.747800
      2044.50     0.748400
      2045.00     0.749000
      2045.50     0.749600
      2046.00     0.750300
      2046.50     0.750100
      2047.00     0.750000
      2047.50     0.749800
      2048.00     0.749600
      2048.50     0.749900
      2049.00     0.750100
      2049.50     0.750300
      2050.00     0.750500
      2050.50     0.750600
      2051.00     0.750600
      2051.50     0.750800
      2052.00     0.750900
      2052.50     0.751300
      2053.00     0.751800
      2053.50     0.752100
      2054.00     0.752500
      2054.50     0.754000
      2055.00     0.755600
      2055.50     0.757100
      2056.00     0.758700
      2056.50     0.758900
      2057.00     0.759000
      2057.50     0.759200
      2058.00     0.759400
      2058.50     0.759600
      2059.00     0.759800
      2059.50     0.760000
      2060.00     0.760100
      2060.50     0.760300
      2061.00     0.760500
      2061.50     0.760700
      2062.00     0.760900
      2062.50     0.760600
      2063.00     0.760400
      2063.50     0.760200
      2064.00     0.759900
      2064.50     0.759600
      2065.00     0.759200
      2065.50     0.758800
      2066.00     0.758500
      2066.50     0.758600
      2067.00     0.758700
      2067.50     0.758800
      2068.00     0.758800
      2068.50     0.759100
      2069.00     0.759300
      2069.50     0.759700
      2070.00     0.760200
      2070.50     0.760500
      2071.00     0.760800
      2071.50     0.761200
      2072.00     0.761600
      2072.50     0.762100
      2073.00     0.762600
      2073.50     0.763100
      2074.00     0.763700
      2074.50     0.762500
      2075.00     0.761300
      2075.50     0.760100
      2076.00     0.758900
      2076.50     0.758700
      2077.00     0.758400
      2077.50     0.758100
      2078.00     0.757900
      2078.50     0.758400
      2079.00     0.759000
      2079.50     0.759500
      2080.00     0.760000
      2080.50     0.759600
      2081.00     0.759200
      2081.50     0.758800
      2082.00     0.758500
      2082.50     0.758500
      2083.00     0.758500
      2083.50     0.758500
      2084.00     0.758500
      2084.50     0.758500
      2085.00     0.758500
      2085.50     0.758400
      2086.00     0.758300
      2086.50     0.758500
      2087.00     0.758800
      2087.50     0.759200
      2088.00     0.759500
      2088.50     0.759500
      2089.00     0.759500
      2089.50     0.759400
      2090.00     0.759400
      2090.50     0.760700
      2091.00     0.762100
      2091.50     0.763400
      2092.00     0.764600
      2092.50     0.765700
      2093.00     0.766700
      2093.50     0.767700
      2094.00     0.768800
      2094.50     0.768400
      2095.00     0.768000
      2095.50     0.767500
      2096.00     0.767100
      2096.50     0.766900
      2097.00     0.766800
      2097.50     0.766600
      2098.00     0.766400
      2098.50     0.767900
      2099.00     0.769400
      2099.50     0.770900
      2100.00     0.772400
      2100.50     0.773400
      2101.00     0.774300
      2101.50     0.775400
      2102.00     0.776400
      2102.50     0.775800
      2103.00     0.775100
      2103.50     0.774400
      2104.00     0.773700
      2104.50     0.773400
      2105.00     0.773100
      2105.50     0.772800
      2106.00     0.772600
      2106.50     0.772300
      2107.00     0.772000
      2107.50     0.771800
      2108.00     0.771500
      2108.50     0.771700
      2109.00     0.771900
      2109.50     0.772100
      2110.00     0.772300
      2110.50     0.772200
      2111.00     0.772200
      2111.50     0.772300
      2112.00     0.772400
      2112.50     0.772300
      2113.00     0.772200
      2113.50     0.772100
      2114.00     0.772100
      2114.50     0.772000
      2115.00     0.771800
      2115.50     0.771800
      2116.00     0.771800
      2116.50     0.771000
      2117.00     0.770200
      2117.50     0.769400
      2118.00     0.768600
      2118.50     0.768000
      2119.00     0.767300
      2119.50     0.766800
      2120.00     0.766400
      2120.50     0.766500
      2121.00     0.766700
      2121.50     0.766800
      2122.00     0.766800
      2122.50     0.767400
      2123.00     0.768000
      2123.50     0.768700
      2124.00     0.769400
      2124.50     0.771100
      2125.00     0.772800
      2125.50     0.774400
      2126.00     0.776000
      2126.50     0.775500
      2127.00     0.775000
      2127.50     0.774600
      2128.00     0.774100
      2128.50     0.773400
      2129.00     0.772800
      2129.50     0.772100
      2130.00     0.771400
      2130.50     0.770900
      2131.00     0.770300
      2131.50     0.769600
      2132.00     0.769000
      2132.50     0.769100
      2133.00     0.769300
      2133.50     0.769500
      2134.00     0.769700
      2134.50     0.771100
      2135.00     0.772600
      2135.50     0.773900
      2136.00     0.775200
      2136.50     0.775900
      2137.00     0.776700
      2137.50     0.777500
      2138.00     0.778400
      2138.50     0.779200
      2139.00     0.779900
      2139.50     0.780600
      2140.00     0.781300
      2140.50     0.782300
      2141.00     0.783300
      2141.50     0.784500
      2142.00     0.785800
      2142.50     0.785300
      2143.00     0.784800
      2143.50     0.784200
      2144.00     0.783700
      2144.50     0.782800
      2145.00     0.782000
      2145.50     0.781200
      2146.00     0.780500
      2146.50     0.779400
      2147.00     0.778400
      2147.50     0.777500
      2148.00     0.776600
      2148.50     0.776100
      2149.00     0.775600
      2149.50     0.774900
      2150.00     0.774300
      2150.50     0.774700
      2151.00     0.775200
      2151.50     0.775800
      2152.00     0.776400
      2152.50     0.776000
      2153.00     0.775600
      2153.50     0.775100
      2154.00     0.774700
      2154.50     0.775700
      2155.00     0.776800
      2155.50     0.777900
      2156.00     0.779100
      2156.50     0.779300
      2157.00     0.779400
      2157.50     0.779700
      2158.00     0.779900
      2158.50     0.778100
      2159.00     0.776300
      2159.50     0.774700
      2160.00     0.773100
      2160.50     0.774200
      2161.00     0.775400
      2161.50     0.776600
      2162.00     0.777800
      2162.50     0.779100
      2163.00     0.780400
      2163.50     0.781700
      2164.00     0.782900
      2164.50     0.783600
      2165.00     0.784200
      2165.50     0.784800
      2166.00     0.785300
      2166.50     0.784500
      2167.00     0.783700
      2167.50     0.782800
      2168.00     0.781900
      2168.50     0.781100
      2169.00     0.780300
      2169.50     0.779500
      2170.00     0.778600
      2170.50     0.778900
      2171.00     0.779200
      2171.50     0.779500
      2172.00     0.779800
      2172.50     0.781000
      2173.00     0.782200
      2173.50     0.783200
      2174.00     0.784300
      2174.50     0.785200
      2175.00     0.786100
      2175.50     0.787000
      2176.00     0.787900
      2176.50     0.788400
      2177.00     0.788800
      2177.50     0.789400
      2178.00     0.789900
      2178.50     0.788500
      2179.00     0.787200
      2179.50     0.786000
      2180.00     0.784800
      2180.50     0.783000
      2181.00     0.781200
      2181.50     0.779500
      2182.00     0.777800
      2182.50     0.778000
      2183.00     0.778100
      2183.50     0.778100
      2184.00     0.778200
      2184.50     0.779500
      2185.00     0.780900
      2185.50     0.782300
      2186.00     0.783600
      2186.50     0.781800
      2187.00     0.780000
      2187.50     0.778300
      2188.00     0.776500
      2188.50     0.775600
      2189.00     0.774600
      2189.50     0.773800
      2190.00     0.772900
      2190.50     0.775300
      2191.00     0.777700
      2191.50     0.780100
      2192.00     0.782500
      2192.50     0.783200
      2193.00     0.784000
      2193.50     0.784800
      2194.00     0.785600
      2194.50     0.784000
      2195.00     0.782400
      2195.50     0.780600
      2196.00     0.778900
      2196.50     0.776400
      2197.00     0.773800
      2197.50     0.771300
      2198.00     0.768700
      2198.50     0.766400
      2199.00     0.764200
      2199.50     0.762000
      2200.00     0.759800
      2200.50     0.760700
      2201.00     0.761600
      2201.50     0.762600
      2202.00     0.763700
      2202.50     0.765800
      2203.00     0.767800
      2203.50     0.769800
      2204.00     0.771900
      2204.50     0.773500
      2205.00     0.775000
      2205.50     0.776500
      2206.00     0.777900
      2206.50     0.778800
      2207.00     0.779600
      2207.50     0.780500
      2208.00     0.781400
      2208.50     0.781900
      2209.00     0.782300
      2209.50     0.782700
      2210.00     0.783100
      2210.50     0.783700
      2211.00     0.784200
      2211.50     0.784700
      2212.00     0.785200
      2212.50     0.786000
      2213.00     0.786700
      2213.50     0.787500
      2214.00     0.788300
      2214.50     0.787800
      2215.00     0.787300
      2215.50     0.786700
      2216.00     0.786100
      2216.50     0.786200
      2217.00     0.786300
      2217.50     0.786400
      2218.00     0.786400
      2218.50     0.786200
      2219.00     0.785900
      2219.50     0.785500
      2220.00     0.785100
      2220.50     0.784600
      2221.00     0.784100
      2221.50     0.783600
      2222.00     0.783200
      2222.50     0.783700
      2223.00     0.784200
      2223.50     0.784900
      2224.00     0.785500
      2224.50     0.785100
      2225.00     0.784700
      2225.50     0.784200
      2226.00     0.783600
      2226.50     0.783800
      2227.00     0.784100
      2227.50     0.784400
      2228.00     0.784700
      2228.50     0.785100
      2229.00     0.785600
      2229.50     0.786000
      2230.00     0.786500
      2230.50     0.786000
      2231.00     0.785400
      2231.50     0.784900
      2232.00     0.784400
      2232.50     0.784200
      2233.00     0.784100
      2233.50     0.783900
      2234.00     0.783700
      2234.50     0.783200
      2235.00     0.782700
      2235.50     0.782300
      2236.00     0.781800
      2236.50     0.781800
      2237.00     0.781800
      2237.50     0.781800
      2238.00     0.781700
      2238.50     0.782100
      2239.00     0.782400
      2239.50     0.782600
      2240.00     0.782800
      2240.50     0.783100
      2241.00     0.783400
      2241.50     0.783800
      2242.00     0.784200
      2242.50     0.785100
      2243.00     0.786000
      2243.50     0.786800
      2244.00     0.787600
      2244.50     0.788100
      2245.00     0.788600
      2245.50     0.789100
      2246.00     0.789500
      2246.50     0.789300
      2247.00     0.789100
      2247.50     0.788800
      2248.00     0.788600
      2248.50     0.789200
      2249.00     0.789800
      2249.50     0.790400
      2250.00     0.791000
      2250.50     0.790500
      2251.00     0.790100
      2251.50     0.789600
      2252.00     0.789200
      2252.50     0.789100
      2253.00     0.789100
      2253.50     0.789100
      2254.00     0.789100
      2254.50     0.788900
      2255.00     0.788700
      2255.50     0.788600
      2256.00     0.788400
      2256.50     0.788300
      2257.00     0.788200
      2257.50     0.788300
      2258.00     0.788300
      2258.50     0.788800
      2259.00     0.789400
      2259.50     0.789800
      2260.00     0.790300
      2260.50     0.790000
      2261.00     0.789600
      2261.50     0.789300
      2262.00     0.789000
      2262.50     0.787800
      2263.00     0.786700
      2263.50     0.785600
      2264.00     0.784600
      2264.50     0.784000
      2265.00     0.783400
      2265.50     0.782800
      2266.00     0.782200
      2266.50     0.782300
      2267.00     0.782400
      2267.50     0.782500
      2268.00     0.782600
      2268.50     0.782600
      2269.00     0.782500
      2269.50     0.782400
      2270.00     0.782300
      2270.50     0.782300
      2271.00     0.782200
      2271.50     0.782200
      2272.00     0.782100
      2272.50     0.781900
      2273.00     0.781700
      2273.50     0.781500
      2274.00     0.781300
      2274.50     0.781300
      2275.00     0.781200
      2275.50     0.781300
      2276.00     0.781300
      2276.50     0.781800
      2277.00     0.782300
      2277.50     0.782800
      2278.00     0.783200
      2278.50     0.783500
      2279.00     0.783900
      2279.50     0.784200
      2280.00     0.784500
      2280.50     0.783000
      2281.00     0.781500
      2281.50     0.780000
      2282.00     0.778500
      2282.50     0.779000
      2283.00     0.779500
      2283.50     0.780000
      2284.00     0.780500
      2284.50     0.782000
      2285.00     0.783400
      2285.50     0.784800
      2286.00     0.786200
      2286.50     0.786400
      2287.00     0.786600
      2287.50     0.786800
      2288.00     0.787100
      2288.50     0.787700
      2289.00     0.788400
      2289.50     0.788900
      2290.00     0.789400
      2290.50     0.789000
      2291.00     0.788600
      2291.50     0.788100
      2292.00     0.787500
      2292.50     0.786700
      2293.00     0.785800
      2293.50     0.785000
      2294.00     0.784100
      2294.50     0.784500
      2295.00     0.784800
      2295.50     0.785200
      2296.00     0.785600
      2296.50     0.785300
      2297.00     0.785000
      2297.50     0.784800
      2298.00     0.784700
      2298.50     0.783700
      2299.00     0.782700
      2299.50     0.781800
      2300.00     0.780800
      2300.50     0.779900
      2301.00     0.779100
      2301.50     0.778200
      2302.00     0.777300
      2302.50     0.777600
      2303.00     0.777900
      2303.50     0.778100
      2304.00     0.778200
      2304.50     0.778400
      2305.00     0.778700
      2305.50     0.779100
      2306.00     0.779500
      2306.50     0.779400
      2307.00     0.779300
      2307.50     0.779600
      2308.00     0.779800
      2308.50     0.780300
      2309.00     0.780800
      2309.50     0.781400
      2310.00     0.782000
      2310.50     0.782400
      2311.00     0.782800
      2311.50     0.783100
      2312.00     0.783400
      2312.50     0.783000
      2313.00     0.782600
      2313.50     0.782200
      2314.00     0.781800
      2314.50     0.781600
      2315.00     0.781500
      2315.50     0.781400
      2316.00     0.781400
      2316.50     0.781400
      2317.00     0.781500
      2317.50     0.781600
      2318.00     0.781700
      2318.50     0.781300
      2319.00     0.780900
      2319.50     0.780700
      2320.00     0.780600
      2320.50     0.780100
      2321.00     0.779600
      2321.50     0.778900
      2322.00     0.778300
      2322.50     0.778100
      2323.00     0.777800
      2323.50     0.777300
      2324.00     0.776700
      2324.50     0.776900
      2325.00     0.777000
      2325.50     0.777100
      2326.00     0.777200
      2326.50     0.777500
      2327.00     0.777800
      2327.50     0.778200
      2328.00     0.778500
      2328.50     0.778000
      2329.00     0.777400
      2329.50     0.777000
      2330.00     0.776500
      2330.50     0.775700
      2331.00     0.774800
      2331.50     0.774000
      2332.00     0.773100
      2332.50     0.772500
      2333.00     0.771900
      2333.50     0.771400
      2334.00     0.770900
      2334.50     0.770400
      2335.00     0.769800
      2335.50     0.769300
      2336.00     0.768700
      2336.50     0.768200
      2337.00     0.767600
      2337.50     0.767000
      2338.00     0.766400
      2338.50     0.766100
      2339.00     0.765800
      2339.50     0.765800
      2340.00     0.765700
      2340.50     0.766100
      2341.00     0.766500
      2341.50     0.767000
      2342.00     0.767500
      2342.50     0.767500
      2343.00     0.767500
      2343.50     0.767400
      2344.00     0.767400
      2344.50     0.767900
      2345.00     0.768400
      2345.50     0.768700
      2346.00     0.769100
      2346.50     0.768400
      2347.00     0.767600
      2347.50     0.766900
      2348.00     0.766200
      2348.50     0.765800
      2349.00     0.765400
      2349.50     0.765000
      2350.00     0.764500
      2350.50     0.765300
      2351.00     0.766100
      2351.50     0.767000
      2352.00     0.767800
      2352.50     0.767800
      2353.00     0.767800
      2353.50     0.767800
      2354.00     0.767900
      2354.50     0.767700
      2355.00     0.767600
      2355.50     0.767400
      2356.00     0.767200
      2356.50     0.766400
      2357.00     0.765500
      2357.50     0.764500
      2358.00     0.763400
      2358.50     0.763000
      2359.00     0.762600
      2359.50     0.762400
      2360.00     0.762100
      2360.50     0.763100
      2361.00     0.764000
      2361.50     0.765000
      2362.00     0.765900
      2362.50     0.765800
      2363.00     0.765600
      2363.50     0.765400
      2364.00     0.765200
      2364.50     0.764900
      2365.00     0.764600
      2365.50     0.764400
      2366.00     0.764100
      2366.50     0.764400
      2367.00     0.764700
      2367.50     0.764900
      2368.00     0.765100
      2368.50     0.764000
      2369.00     0.762800
      2369.50     0.761700
      2370.00     0.760500
      2370.50     0.759600
      2371.00     0.758800
      2371.50     0.757800
      2372.00     0.756900
      2372.50     0.757100
      2373.00     0.757200
      2373.50     0.757400
      2374.00     0.757600
      2374.50     0.757300
      2375.00     0.757000
      2375.50     0.756600
      2376.00     0.756200
      2376.50     0.754500
      2377.00     0.752900
      2377.50     0.751400
      2378.00     0.749900
      2378.50     0.749600
      2379.00     0.749400
      2379.50     0.749200
      2380.00     0.749000
      2380.50     0.750000
      2381.00     0.751000
      2381.50     0.752100
      2382.00     0.753100
      2382.50     0.752600
      2383.00     0.752000
      2383.50     0.751500
      2384.00     0.750900
      2384.50     0.750300
      2385.00     0.749700
      2385.50     0.749200
      2386.00     0.748700
      2386.50     0.748500
      2387.00     0.748300
      2387.50     0.748000
      2388.00     0.747600
      2388.50     0.747800
      2389.00     0.748000
      2389.50     0.748200
      2390.00     0.748400
      2390.50     0.749600
      2391.00     0.750800
      2391.50     0.751900
      2392.00     0.753000
      2392.50     0.752300
      2393.00     0.751600
      2393.50     0.750800
      2394.00     0.750100
      2394.50     0.748300
      2395.00     0.746600
      2395.50     0.744800
      2396.00     0.742900
      2396.50     0.742700
      2397.00     0.742500
      2397.50     0.742300
      2398.00     0.742000
      2398.50     0.741700
      2399.00     0.741400
      2399.50     0.741200
      2400.00     0.740900
      2400.50     0.740200
      2401.00     0.739500
      2401.50     0.738800
      2402.00     0.738000
      2402.50     0.737800
      2403.00     0.737500
      2403.50     0.737300
      2404.00     0.737100
      2404.50     0.736800
      2405.00     0.736500
      2405.50     0.736100
      2406.00     0.735900
      2406.50     0.734800
      2407.00     0.733800
      2407.50     0.732700
      2408.00     0.731800
      2408.50     0.731700
      2409.00     0.731600
      2409.50     0.731500
      2410.00     0.731400
      2410.50     0.730800
      2411.00     0.730300
      2411.50     0.729700
      2412.00     0.729200
      2412.50     0.729900
      2413.00     0.730400
      2413.50     0.731000
      2414.00     0.731500
      2414.50     0.731600
      2415.00     0.731800
      2415.50     0.732000
      2416.00     0.732300
      2416.50     0.731300
      2417.00     0.730300
      2417.50     0.729300
      2418.00     0.728300
      2418.50     0.728100
      2419.00     0.728000
      2419.50     0.727900
      2420.00     0.727800
      2420.50     0.727000
      2421.00     0.726300
      2421.50     0.725600
      2422.00     0.724900
      2422.50     0.724100
      2423.00     0.723500
      2423.50     0.722800
      2424.00     0.722100
      2424.50     0.722200
      2425.00     0.722300
      2425.50     0.722300
      2426.00     0.722400
      2426.50     0.722200
      2427.00     0.722100
      2427.50     0.722000
      2428.00     0.721900
      2428.50     0.721800
      2429.00     0.721700
      2429.50     0.721600
      2430.00     0.721600
      2430.50     0.721500
      2431.00     0.721300
      2431.50     0.721100
      2432.00     0.721000
      2432.50     0.720900
      2433.00     0.720900
      2433.50     0.720800
      2434.00     0.720900
      2434.50     0.720600
      2435.00     0.720300
      2435.50     0.720000
      2436.00     0.719700
      2436.50     0.717900
      2437.00     0.715900
      2437.50     0.713900
      2438.00     0.711900
      2438.50     0.711600
      2439.00     0.711200
      2439.50     0.710900
      2440.00     0.710500
      2440.50     0.709800
      2441.00     0.709200
      2441.50     0.708700
      2442.00     0.708100
      2442.50     0.706900
      2443.00     0.705500
      2443.50     0.704200
      2444.00     0.702900
      2444.50     0.702900
      2445.00     0.702900
      2445.50     0.703000
      2446.00     0.703000
      2446.50     0.702800
      2447.00     0.702600
      2447.50     0.702400
      2448.00     0.702200
      2448.50     0.701100
      2449.00     0.700000
      2449.50     0.698900
      2450.00     0.697900
      2450.50     0.697500
      2451.00     0.697000
      2451.50     0.696500
      2452.00     0.696100
      2452.50     0.696400
      2453.00     0.696800
      2453.50     0.697200
      2454.00     0.697600
      2454.50     0.698000
      2455.00     0.698400
      2455.50     0.698800
      2456.00     0.699300
      2456.50     0.699000
      2457.00     0.698700
      2457.50     0.698400
      2458.00     0.698100
      2458.50     0.696800
      2459.00     0.695600
      2459.50     0.694300
      2460.00     0.693000
      2460.50     0.691600
      2461.00     0.690300
      2461.50     0.689100
      2462.00     0.687800
      2462.50     0.686600
      2463.00     0.685400
      2463.50     0.684200
      2464.00     0.683100
      2464.50     0.683000
      2465.00     0.682900
      2465.50     0.682800
      2466.00     0.682600
      2466.50     0.683500
      2467.00     0.684500
      2467.50     0.685400
      2468.00     0.686400
      2468.50     0.686600
      2469.00     0.686900
      2469.50     0.687100
      2470.00     0.687500
      2470.50     0.687100
      2471.00     0.686700
      2471.50     0.686400
      2472.00     0.686000
      2472.50     0.685300
      2473.00     0.684600
      2473.50     0.683900
      2474.00     0.683200
      2474.50     0.682500
      2475.00     0.681700
      2475.50     0.680900
      2476.00     0.680300
      2476.50     0.679800
      2477.00     0.679000
      2477.50     0.678100
      2478.00     0.677500
      2478.50     0.677300
      2479.00     0.677000
      2479.50     0.676800
      2480.00     0.676500
      2480.50     0.675500
      2481.00     0.674700
      2481.50     0.674000
      2482.00     0.673200
      2482.50     0.672100
      2483.00     0.670900
      2483.50     0.669700
      2484.00     0.668500
      2484.50     0.668200
      2485.00     0.668100
      2485.50     0.668000
      2486.00     0.667700
      2486.50     0.667700
      2487.00     0.667700
      2487.50     0.667700
      2488.00     0.667600
      2488.50     0.666600
      2489.00     0.665500
      2489.50     0.664400
      2490.00     0.663400
      2490.50     0.663200
      2491.00     0.663200
      2491.50     0.663200
      2492.00     0.663000
      2492.50     0.662800
      2493.00     0.662900
      2493.50     0.663000
      2494.00     0.662900
      2494.50     0.662600
      2495.00     0.662600
      2495.50     0.662500
      2496.00     0.662300
      2496.50     0.661900
      2497.00     0.661400
      2497.50     0.660800
      2498.00     0.660200
      2498.50     0.659000
      2499.00     0.657700
      2499.50     0.656500
      2500.00     0.655300
      2500.50     0.654600
      2501.00     0.653800
      2501.50     0.653100
      2502.00     0.652300
      2502.50     0.651200
      2503.00     0.650300
      2503.50     0.649300
      2504.00     0.648200
      2504.50     0.648200
      2505.00     0.648200
      2505.50     0.648100
      2506.00     0.648000
      2506.50     0.646800
      2507.00     0.645500
      2507.50     0.644200
      2508.00     0.643100
      2508.50     0.641800
      2509.00     0.640500
      2509.50     0.639100
      2510.00     0.637700
      2510.50     0.637500
      2511.00     0.637100
      2511.50     0.636800
      2512.00     0.636500
      2512.50     0.636100
      2513.00     0.635700
      2513.50     0.635200
      2514.00     0.634800
      2514.50     0.635000
      2515.00     0.635200
      2515.50     0.635400
      2516.00     0.635600
      2516.50     0.635400
      2517.00     0.635300
      2517.50     0.635100
      2518.00     0.635000
      2518.50     0.634000
      2519.00     0.633000
      2519.50     0.632000
      2520.00     0.631200
      2520.50     0.630100
      2521.00     0.629100
      2521.50     0.628100
      2522.00     0.627000
      2522.50     0.626800
      2523.00     0.626400
      2523.50     0.626100
      2524.00     0.625700
      2524.50     0.625300
      2525.00     0.624900
      2525.50     0.624500
      2526.00     0.624200
      2526.50     0.624000
      2527.00     0.623800
      2527.50     0.623600
      2528.00     0.623300
      2528.50     0.622700
      2529.00     0.622200
      2529.50     0.621600
      2530.00     0.621100
      2530.50     0.620000
      2531.00     0.618900
      2531.50     0.617700
      2532.00     0.616600
      2532.50     0.615500
      2533.00     0.614400
      2533.50     0.613200
      2534.00     0.612200
      2534.50     0.612000
      2535.00     0.611800
      2535.50     0.611600
      2536.00     0.611300
      2536.50     0.610700
      2537.00     0.610200
      2537.50     0.609600
      2538.00     0.609100
      2538.50     0.609100
      2539.00     0.609100
      2539.50     0.609100
      2540.00     0.609000
      2540.50     0.608400
      2541.00     0.607700
      2541.50     0.607100
      2542.00     0.606300
      2542.50     0.605100
      2543.00     0.604000
      2543.50     0.602900
      2544.00     0.601700
      2544.50     0.600300
      2545.00     0.598800
      2545.50     0.597300
      2546.00     0.595800
      2546.50     0.594700
      2547.00     0.593500
      2547.50     0.592400
      2548.00     0.591300
      2548.50     0.591000
      2549.00     0.590700
      2549.50     0.590500
      2550.00     0.590100
      2550.50     0.589900
      2551.00     0.589600
      2551.50     0.589400
      2552.00     0.589100
      2552.50     0.588200
      2553.00     0.587200
      2553.50     0.586200
      2554.00     0.585200
      2554.50     0.583600
      2555.00     0.581900
      2555.50     0.580300
      2556.00     0.578600
      2556.50     0.578200
      2557.00     0.577700
      2557.50     0.577200
      2558.00     0.576800
      2558.50     0.577200
      2559.00     0.577700
      2559.50     0.578200
      2560.00     0.578700
      2560.50     0.577500
      2561.00     0.576100
      2561.50     0.574800
      2562.00     0.573400
      2562.50     0.573000
      2563.00     0.572600
      2563.50     0.572300
      2564.00     0.572100
      2564.50     0.572300
      2565.00     0.572600
      2565.50     0.572900
      2566.00     0.573100
      2566.50     0.572600
      2567.00     0.572100
      2567.50     0.571500
      2568.00     0.571000
      2568.50     0.569800
      2569.00     0.568600
      2569.50     0.567400
      2570.00     0.566200
      2570.50     0.565700
      2571.00     0.565100
      2571.50     0.564500
      2572.00     0.564100
      2572.50     0.564400
      2573.00     0.564700
      2573.50     0.565100
      2574.00     0.565400
      2574.50     0.565200
      2575.00     0.564800
      2575.50     0.564500
      2576.00     0.564100
      2576.50     0.563300
      2577.00     0.562600
      2577.50     0.561900
      2578.00     0.561300
      2578.50     0.560000
      2579.00     0.558700
      2579.50     0.557400
      2580.00     0.556000
      2580.50     0.553800
      2581.00     0.551600
      2581.50     0.549300
      2582.00     0.547200
      2582.50     0.546300
      2583.00     0.545400
      2583.50     0.544500
      2584.00     0.543700
      2584.50     0.544200
      2585.00     0.544500
      2585.50     0.544900
      2586.00     0.545200
      2586.50     0.545100
      2587.00     0.545100
      2587.50     0.545000
      2588.00     0.544900
      2588.50     0.542800
      2589.00     0.540600
      2589.50     0.538500
      2590.00     0.536300
      2590.50     0.534200
      2591.00     0.532100
      2591.50     0.530000
      2592.00     0.528000
      2592.50     0.528100
      2593.00     0.528300
      2593.50     0.528500
      2594.00     0.528700
      2594.50     0.529600
      2595.00     0.530500
      2595.50     0.531300
      2596.00     0.532200
      2596.50     0.531700
      2597.00     0.531200
      2597.50     0.530700
      2598.00     0.530200
      2598.50     0.528400
      2599.00     0.526700
      2599.50     0.525000
