# Transmission of H Filter (BARR MAN114A; Gemini ID H_G0803, F2)
# Wavelength (nm) Transmission at 77K (1=100%)
#
1348.3 0.0000
1348.8 0.0000
1349.3 0.0000
1349.8 0.0000
1350.3 0.0000
1350.8 0.0000
1351.3 0.0000
1351.8 0.0000
1352.3 0.0000
1352.8 0.0000
1353.3 0.0000
1353.8 0.0000
1354.3 0.0000
1354.8 0.0000
1355.3 0.0000
1355.8 0.0000
1356.3 0.0000
1356.8 0.0000
1357.3 0.0000
1357.8 0.0000
1358.3 0.0000
1358.8 0.0000
1359.3 0.0000
1359.8 0.0000
1360.3 0.0000
1360.8 0.0000
1361.3 0.0000
1361.8 0.0000
1362.3 0.0000
1362.8 0.0000
1363.3 0.0000
1363.8 0.0000
1364.3 0.0000
1364.8 0.0000
1365.3 0.0000
1365.8 0.0000
1366.3 0.0000
1366.8 0.0000
1367.3 0.0000
1367.8 0.0000
1368.3 0.0000
1368.8 0.0000
1369.3 0.0000
1369.8 0.0000
1370.3 0.0000
1370.8 0.0000
1371.3 0.0000
1371.8 0.0000
1372.3 0.0000
1372.8 0.0000
1373.3 0.0000
1373.8 0.0000
1374.3 0.0000
1374.8 0.0000
1375.3 0.0000
1375.8 0.0000
1376.3 0.0000
1376.8 0.0000
1377.3 0.0000
1377.8 0.0000
1378.3 0.0000
1378.8 0.0000
1379.3 0.0000
1379.8 0.0000
1380.3 0.0000
1380.8 0.0000
1381.3 0.0000
1381.8 0.0000
1382.3 0.0000
1382.8 0.0000
1383.3 0.0000
1383.8 0.0000
1384.3 0.0000
1384.8 0.0000
1385.3 0.0000
1385.8 0.0000
1386.3 0.0000
1386.8 0.0000
1387.3 0.0000
1387.8 0.0000
1388.3 0.0000
1388.8 0.0000
1389.3 0.0000
1389.8 0.0000
1390.3 0.0000
1390.8 0.0000
1391.3 0.0000
1391.8 0.0000
1392.3 0.0000
1392.8 0.0000
1393.3 0.0000
1393.8 0.0000
1394.3 0.0000
1394.8 0.0000
1395.3 0.0000
1395.8 0.0000
1396.3 0.0000
1396.8 0.0000
1397.3 0.0000
1397.8 0.0000
1398.3 0.0000
1398.8 0.0000
1399.3 0.0000
1399.8 0.0000
1400.3 0.0000
1400.8 0.0000
1401.3 0.0000
1401.8 0.0000
1402.3 0.0000
1402.8 0.0000
1403.3 0.0000
1403.8 0.0000
1404.3 0.0000
1404.8 0.0000
1405.3 0.0000
1405.8 0.0000
1406.3 0.0000
1406.8 0.0000
1407.3 0.0000
1407.8 0.0000
1408.3 0.0000
1408.8 0.0000
1409.3 0.0000
1409.8 0.0000
1410.3 0.0000
1410.8 0.0000
1411.3 0.0000
1411.8 0.0000
1412.3 0.0000
1412.8 0.0000
1413.3 0.0000
1413.8 0.0000
1414.3 0.0000
1414.8 0.0000
1415.3 0.0000
1415.8 0.0000
1416.3 0.0000
1416.8 0.0000
1417.3 0.0000
1417.8 0.0000
1418.3 0.0000
1418.8 0.0000
1419.3 0.0000
1419.8 0.0000
1420.3 0.0000
1420.8 0.0000
1421.3 0.0000
1421.8 0.0000
1422.3 0.0000
1422.8 0.0000
1423.3 0.0000
1423.8 0.0000
1424.3 0.0000
1424.8 0.0000
1425.3 0.0000
1425.8 0.0000
1426.3 0.0000
1426.8 0.0000
1427.3 0.0000
1427.8 0.0000
1428.3 0.0000
1428.8 0.0000
1429.3 0.0000
1429.8 0.0000
1430.3 0.0000
1430.8 0.0000
1431.3 0.0000
1431.8 0.0000
1432.3 0.0000
1432.8 0.0000
1433.3 0.0000
1433.8 0.0000
1434.3 0.0000
1434.8 0.0000
1435.3 0.0000
1435.8 0.0000
1436.3 0.0000
1436.8 0.0000
1437.3 0.0000
1437.8 0.0000
1438.3 0.0000
1438.8 0.0000
1439.3 0.0000
1439.8 0.0000
1440.3 0.0000
1440.8 0.0000
1441.3 0.0000
1441.8 0.0000
1442.3 0.0000
1442.8 0.0000
1443.3 0.0000
1443.8 0.0000
1444.3 0.0000
1444.8 0.0000
1445.3 0.0000
1445.8 0.0000
1446.3 0.0000
1446.8 0.0010
1447.3 0.0010
1447.8 0.0010
1448.3 0.0010
1448.8 0.0010
1449.3 0.0010
1449.8 0.0010
1450.3 0.0010
1450.8 0.0010
1451.3 0.0010
1451.8 0.0010
1452.3 0.0010
1452.8 0.0010
1453.3 0.0010
1453.8 0.0010
1454.3 0.0020
1454.8 0.0020
1455.3 0.0020
1455.8 0.0020
1456.3 0.0020
1456.8 0.0020
1457.3 0.0030
1457.8 0.0030
1458.3 0.0030
1458.8 0.0040
1459.3 0.0040
1459.8 0.0040
1460.3 0.0040
1460.8 0.0050
1461.3 0.0050
1461.8 0.0060
1462.3 0.0060
1462.8 0.0070
1463.3 0.0070
1463.8 0.0080
1464.3 0.0080
1464.8 0.0090
1465.3 0.0090
1465.8 0.0100
1466.3 0.0110
1466.8 0.0120
1467.3 0.0120
1467.8 0.0130
1468.3 0.0140
1468.8 0.0150
1469.3 0.0170
1469.8 0.0180
1470.3 0.0190
1470.8 0.0210
1471.3 0.0230
1471.8 0.0240
1472.3 0.0260
1472.8 0.0290
1473.3 0.0310
1473.8 0.0340
1474.3 0.0370
1474.8 0.0410
1475.3 0.0450
1475.8 0.0490
1476.3 0.0540
1476.8 0.0600
1477.3 0.0680
1477.8 0.0750
1478.3 0.0830
1478.8 0.0920
1479.3 0.1030
1479.8 0.1160
1480.3 0.1310
1480.8 0.1480
1481.3 0.1650
1481.8 0.1850
1482.3 0.2080
1482.8 0.2330
1483.3 0.2650
1483.8 0.2970
1484.3 0.3320
1484.8 0.3670
1485.3 0.4060
1485.8 0.4480
1486.3 0.4940
1486.8 0.5430
1487.3 0.5860
1487.8 0.6290
1488.3 0.6710
1488.8 0.7110
1489.3 0.7500
1489.8 0.7850
1490.3 0.8150
1490.8 0.8400
1491.3 0.8610
1491.8 0.8770
1492.3 0.8930
1492.8 0.9050
1493.3 0.9140
1493.8 0.9210
1494.3 0.9250
1494.8 0.9290
1495.3 0.9330
1495.8 0.9350
1496.3 0.9370
1496.8 0.9380
1497.3 0.9390
1497.8 0.9410
1498.3 0.9410
1498.8 0.9420
1499.3 0.9430
1499.8 0.9430
1500.3 0.9440
1500.8 0.9450
1501.3 0.9450
1501.8 0.9450
1502.3 0.9450
1502.8 0.9440
1503.3 0.9440
1503.8 0.9420
1504.3 0.9410
1504.8 0.9400
1505.3 0.9380
1505.8 0.9360
1506.3 0.9340
1506.8 0.9320
1507.3 0.9310
1507.8 0.9280
1508.3 0.9260
1508.8 0.9250
1509.3 0.9230
1509.8 0.9210
1510.3 0.9200
1510.8 0.9180
1511.3 0.9180
1511.8 0.9170
1512.3 0.9160
1512.8 0.9160
1513.3 0.9150
1513.8 0.9160
1514.3 0.9160
1514.8 0.9160
1515.3 0.9170
1515.8 0.9170
1516.3 0.9180
1516.8 0.9190
1517.3 0.9190
1517.8 0.9200
1518.3 0.9220
1518.8 0.9220
1519.3 0.9230
1519.8 0.9240
1520.3 0.9240
1520.8 0.9260
1521.3 0.9270
1521.8 0.9270
1522.3 0.9280
1522.8 0.9280
1523.3 0.9280
1523.8 0.9290
1524.3 0.9280
1524.8 0.9290
1525.3 0.9290
1525.8 0.9280
1526.3 0.9280
1526.8 0.9280
1527.3 0.9270
1527.8 0.9280
1528.3 0.9280
1528.8 0.9270
1529.3 0.9280
1529.8 0.9270
1530.3 0.9270
1530.8 0.9280
1531.3 0.9270
1531.8 0.9280
1532.3 0.9290
1532.8 0.9290
1533.3 0.9300
1533.8 0.9310
1534.3 0.9310
1534.8 0.9330
1535.3 0.9330
1535.8 0.9350
1536.3 0.9370
1536.8 0.9370
1537.3 0.9390
1537.8 0.9410
1538.3 0.9420
1538.8 0.9440
1539.3 0.9450
1539.8 0.9460
1540.3 0.9490
1540.8 0.9500
1541.3 0.9510
1541.8 0.9530
1542.3 0.9540
1542.8 0.9560
1543.3 0.9570
1543.8 0.9580
1544.3 0.9590
1544.8 0.9600
1545.3 0.9610
1545.8 0.9620
1546.3 0.9620
1546.8 0.9630
1547.3 0.9640
1547.8 0.9640
1548.3 0.9650
1548.8 0.9650
1549.3 0.9650
1549.8 0.9660
1550.3 0.9660
1550.8 0.9660
1551.3 0.9660
1551.8 0.9660
1552.3 0.9670
1552.8 0.9670
1553.3 0.9660
1553.8 0.9670
1554.3 0.9670
1554.8 0.9670
1555.3 0.9670
1555.8 0.9670
1556.3 0.9670
1556.8 0.9660
1557.3 0.9660
1557.8 0.9660
1558.3 0.9660
1558.8 0.9660
1559.3 0.9660
1559.8 0.9640
1560.3 0.9640
1560.8 0.9640
1561.3 0.9620
1561.8 0.9620
1562.3 0.9600
1562.8 0.9590
1563.3 0.9590
1563.8 0.9560
1564.3 0.9550
1564.8 0.9540
1565.3 0.9510
1565.8 0.9500
1566.3 0.9480
1566.8 0.9450
1567.3 0.9430
1567.8 0.9400
1568.3 0.9380
1568.8 0.9350
1569.3 0.9320
1569.8 0.9300
1570.3 0.9280
1570.8 0.9240
1571.3 0.9220
1571.8 0.9190
1572.3 0.9160
1572.8 0.9140
1573.3 0.9110
1573.8 0.9080
1574.3 0.9070
1574.8 0.9030
1575.3 0.9010
1575.8 0.8990
1576.3 0.8970
1576.8 0.8960
1577.3 0.8940
1577.8 0.8920
1578.3 0.8910
1578.8 0.8900
1579.3 0.8880
1579.8 0.8880
1580.3 0.8870
1580.8 0.8870
1581.3 0.8870
1581.8 0.8870
1582.3 0.8870
1582.8 0.8880
1583.3 0.8880
1583.8 0.8900
1584.3 0.8910
1584.8 0.8920
1585.3 0.8940
1585.8 0.8950
1586.3 0.8970
1586.8 0.8990
1587.3 0.9010
1587.8 0.9040
1588.3 0.9060
1588.8 0.9080
1589.3 0.9110
1589.8 0.9130
1590.3 0.9160
1590.8 0.9190
1591.3 0.9210
1591.8 0.9240
1592.3 0.9270
1592.8 0.9290
1593.3 0.9330
1593.8 0.9360
1594.3 0.9380
1594.8 0.9410
1595.3 0.9430
1595.8 0.9460
1596.3 0.9480
1596.8 0.9500
1597.3 0.9530
1597.8 0.9550
1598.3 0.9570
1598.8 0.9590
1599.3 0.9610
1599.8 0.9620
1600.3 0.9640
1600.8 0.9650
1601.3 0.9660
1601.8 0.9670
1602.3 0.9680
1602.8 0.9700
1603.3 0.9700
1603.8 0.9710
1604.3 0.9720
1604.8 0.9720
1605.3 0.9730
1605.8 0.9730
1606.3 0.9730
1606.8 0.9740
1607.3 0.9740
1607.8 0.9740
1608.3 0.9750
1608.8 0.9750
1609.3 0.9750
1609.8 0.9760
1610.3 0.9750
1610.8 0.9760
1611.3 0.9760
1611.8 0.9750
1612.3 0.9760
1612.8 0.9750
1613.3 0.9750
1613.8 0.9760
1614.3 0.9750
1614.8 0.9750
1615.3 0.9760
1615.8 0.9750
1616.3 0.9750
1616.8 0.9750
1617.3 0.9750
1617.8 0.9750
1618.3 0.9740
1618.8 0.9740
1619.3 0.9740
1619.8 0.9730
1620.3 0.9730
1620.8 0.9730
1621.3 0.9710
1621.8 0.9720
1622.3 0.9710
1622.8 0.9690
1623.3 0.9690
1623.8 0.9690
1624.3 0.9680
1624.8 0.9670
1625.3 0.9660
1625.8 0.9650
1626.3 0.9650
1626.8 0.9630
1627.3 0.9620
1627.8 0.9610
1628.3 0.9600
1628.8 0.9600
1629.3 0.9580
1629.8 0.9570
1630.3 0.9570
1630.8 0.9550
1631.3 0.9540
1631.8 0.9540
1632.3 0.9520
1632.8 0.9520
1633.3 0.9510
1633.8 0.9500
1634.3 0.9500
1634.8 0.9490
1635.3 0.9490
1635.8 0.9490
1636.3 0.9480
1636.8 0.9480
1637.3 0.9480
1637.8 0.9480
1638.3 0.9480
1638.8 0.9480
1639.3 0.9480
1639.8 0.9490
1640.3 0.9490
1640.8 0.9490
1641.3 0.9490
1641.8 0.9500
1642.3 0.9510
1642.8 0.9520
1643.3 0.9520
1643.8 0.9530
1644.3 0.9550
1644.8 0.9560
1645.3 0.9560
1645.8 0.9570
1646.3 0.9580
1646.8 0.9590
1647.3 0.9600
1647.8 0.9610
1648.3 0.9620
1648.8 0.9630
1649.3 0.9640
1649.8 0.9650
1650.3 0.9660
1650.8 0.9670
1651.3 0.9670
1651.8 0.9680
1652.3 0.9680
1652.8 0.9690
1653.3 0.9700
1653.8 0.9700
1654.3 0.9710
1654.8 0.9710
1655.3 0.9710
1655.8 0.9710
1656.3 0.9720
1656.8 0.9710
1657.3 0.9720
1657.8 0.9720
1658.3 0.9710
1658.8 0.9710
1659.3 0.9710
1659.8 0.9710
1660.3 0.9710
1660.8 0.9700
1661.3 0.9700
1661.8 0.9710
1662.3 0.9700
1662.8 0.9700
1663.3 0.9690
1663.8 0.9690
1664.3 0.9690
1664.8 0.9680
1665.3 0.9680
1665.8 0.9680
1666.3 0.9680
1666.8 0.9680
1667.3 0.9680
1667.8 0.9670
1668.3 0.9680
1668.8 0.9680
1669.3 0.9670
1669.8 0.9680
1670.3 0.9670
1670.8 0.9680
1671.3 0.9690
1671.8 0.9680
1672.3 0.9680
1672.8 0.9690
1673.3 0.9680
1673.8 0.9690
1674.3 0.9690
1674.8 0.9690
1675.3 0.9700
1675.8 0.9710
1676.3 0.9700
1676.8 0.9710
1677.3 0.9710
1677.8 0.9720
1678.3 0.9720
1678.8 0.9710
1679.3 0.9720
1679.8 0.9730
1680.3 0.9730
1680.8 0.9740
1681.3 0.9730
1681.8 0.9730
1682.3 0.9740
1682.8 0.9740
1683.3 0.9740
1683.8 0.9740
1684.3 0.9740
1684.8 0.9740
1685.3 0.9740
1685.8 0.9730
1686.3 0.9740
1686.8 0.9730
1687.3 0.9730
1687.8 0.9730
1688.3 0.9730
1688.8 0.9720
1689.3 0.9720
1689.8 0.9710
1690.3 0.9710
1690.8 0.9710
1691.3 0.9700
1691.8 0.9700
1692.3 0.9690
1692.8 0.9690
1693.3 0.9690
1693.8 0.9680
1694.3 0.9680
1694.8 0.9670
1695.3 0.9670
1695.8 0.9670
1696.3 0.9670
1696.8 0.9660
1697.3 0.9660
1697.8 0.9670
1698.3 0.9660
1698.8 0.9660
1699.3 0.9650
1699.8 0.9650
1700.3 0.9660
1700.8 0.9660
1701.3 0.9650
1701.8 0.9650
1702.3 0.9660
1702.8 0.9660
1703.3 0.9660
1703.8 0.9670
1704.3 0.9660
1704.8 0.9670
1705.3 0.9670
1705.8 0.9670
1706.3 0.9670
1706.8 0.9680
1707.3 0.9670
1707.8 0.9680
1708.3 0.9680
1708.8 0.9680
1709.3 0.9690
1709.8 0.9690
1710.3 0.9690
1710.8 0.9690
1711.3 0.9690
1711.8 0.9700
1712.3 0.9700
1712.8 0.9690
1713.3 0.9710
1713.8 0.9710
1714.3 0.9710
1714.8 0.9710
1715.3 0.9710
1715.8 0.9720
1716.3 0.9720
1716.8 0.9720
1717.3 0.9720
1717.8 0.9720
1718.3 0.9720
1718.8 0.9730
1719.3 0.9730
1719.8 0.9720
1720.3 0.9730
1720.8 0.9730
1721.3 0.9720
1721.8 0.9730
1722.3 0.9720
1722.8 0.9720
1723.3 0.9730
1723.8 0.9720
1724.3 0.9730
1724.8 0.9730
1725.3 0.9720
1725.8 0.9720
1726.3 0.9720
1726.8 0.9720
1727.3 0.9720
1727.8 0.9720
1728.3 0.9720
1728.8 0.9720
1729.3 0.9720
1729.8 0.9720
1730.3 0.9720
1730.8 0.9710
1731.3 0.9720
1731.8 0.9720
1732.3 0.9710
1732.8 0.9710
1733.3 0.9710
1733.8 0.9710
1734.3 0.9710
1734.8 0.9710
1735.3 0.9710
1735.8 0.9710
1736.3 0.9700
1736.8 0.9700
1737.3 0.9700
1737.8 0.9700
1738.3 0.9690
1738.8 0.9700
1739.3 0.9700
1739.8 0.9690
1740.3 0.9690
1740.8 0.9690
1741.3 0.9690
1741.8 0.9690
1742.3 0.9690
1742.8 0.9690
1743.3 0.9690
1743.8 0.9680
1744.3 0.9680
1744.8 0.9680
1745.3 0.9670
1745.8 0.9670
1746.3 0.9670
1746.8 0.9670
1747.3 0.9670
1747.8 0.9660
1748.3 0.9660
1748.8 0.9660
1749.3 0.9650
1749.8 0.9650
1750.3 0.9650
1750.8 0.9640
1751.3 0.9640
1751.8 0.9630
1752.3 0.9630
1752.8 0.9620
1753.3 0.9610
1753.8 0.9610
1754.3 0.9600
1754.8 0.9590
1755.3 0.9580
1755.8 0.9570
1756.3 0.9550
1756.8 0.9540
1757.3 0.9530
1757.8 0.9500
1758.3 0.9490
1758.8 0.9460
1759.3 0.9440
1759.8 0.9420
1760.3 0.9390
1760.8 0.9360
1761.3 0.9320
1761.8 0.9280
1762.3 0.9230
1762.8 0.9190
1763.3 0.9120
1763.8 0.9080
1764.3 0.9010
1764.8 0.8920
1765.3 0.8840
1765.8 0.8760
1766.3 0.8670
1766.8 0.8560
1767.3 0.8440
1767.8 0.8320
1768.3 0.8180
1768.8 0.8040
1769.3 0.7890
1769.8 0.7740
1770.3 0.7560
1770.8 0.7370
1771.3 0.7180
1771.8 0.6980
1772.3 0.6790
1772.8 0.6580
1773.3 0.6370
1773.8 0.6130
1774.3 0.5880
1774.8 0.5660
1775.3 0.5420
1775.8 0.5190
1776.3 0.4970
1776.8 0.4720
1777.3 0.4480
1777.8 0.4250
1778.3 0.4030
1778.8 0.3820
1779.3 0.3610
1779.8 0.3410
1780.3 0.3190
1780.8 0.3000
1781.3 0.2820
1781.8 0.2650
1782.3 0.2490
1782.8 0.2330
1783.3 0.2190
1783.8 0.2020
1784.3 0.1900
1784.8 0.1770
1785.3 0.1660
1785.8 0.1550
1786.3 0.1440
1786.8 0.1350
1787.3 0.1250
1787.8 0.1170
1788.3 0.1090
1788.8 0.1030
1789.3 0.0950
1789.8 0.0880
1790.3 0.0820
1790.8 0.0770
1791.3 0.0720
1791.8 0.0670
1792.3 0.0630
1792.8 0.0590
1793.3 0.0550
1793.8 0.0510
1794.3 0.0480
1794.8 0.0450
1795.3 0.0420
1795.8 0.0390
1796.3 0.0370
1796.8 0.0350
1797.3 0.0320
1797.8 0.0310
1798.3 0.0290
1798.8 0.0270
1799.3 0.0250
1799.8 0.0230
1800.3 0.0220
1800.8 0.0210
1801.3 0.0190
1801.8 0.0180
1802.3 0.0170
1802.8 0.0160
1803.3 0.0150
1803.8 0.0150
1804.3 0.0140
1804.8 0.0130
1805.3 0.0120
1805.8 0.0110
1806.3 0.0110
1806.8 0.0100
1807.3 0.0100
1807.8 0.0090
1808.3 0.0090
1808.8 0.0080
1809.3 0.0080
1809.8 0.0070
1810.3 0.0070
1810.8 0.0060
1811.3 0.0060
1811.8 0.0060
1812.3 0.0050
1812.8 0.0050
1813.3 0.0050
1813.8 0.0050
1814.3 0.0040
1814.8 0.0040
1815.3 0.0040
1815.8 0.0040
1816.3 0.0040
1816.8 0.0030
1817.3 0.0030
1817.8 0.0030
1818.3 0.0030
1818.8 0.0030
1819.3 0.0030
1819.8 0.0020
1820.3 0.0020
1820.8 0.0020
1821.3 0.0020
1821.8 0.0020
1822.3 0.0020
1822.8 0.0020
1823.3 0.0020
1823.8 0.0020
1824.3 0.0020
1824.8 0.0020
1825.3 0.0010
1825.8 0.0010
1826.3 0.0010
1826.8 0.0010
1827.3 0.0010
1827.8 0.0010
1828.3 0.0010
1828.8 0.0010
1829.3 0.0010
1829.8 0.0010
1830.3 0.0010
1830.8 0.0010
1831.3 0.0010
1831.8 0.0010
1832.3 0.0010
1832.8 0.0010
1833.3 0.0010
1833.8 0.0010
1834.3 0.0010
1834.8 0.0010
1835.3 0.0010
1835.8 0.0010
1836.3 0.0010
1836.8 0.0010
1837.3 0.0010
1837.8 0.0000
1838.3 0.0000
1838.8 0.0000
1839.3 0.0000
1839.8 0.0000
1840.3 0.0000
1840.8 0.0000
1841.3 0.0000
1841.8 0.0000
1842.3 0.0000
1842.8 0.0000
1843.3 0.0000
1843.8 0.0000
1844.3 0.0000
1844.8 0.0000
1845.3 0.0000
1845.8 0.0000
1846.3 0.0000
1846.8 0.0000
1847.3 0.0000
1847.8 0.0000
1848.3 0.0000
1848.8 0.0000
1849.3 0.0000
1849.8 0.0000
1850.3 0.0000
1850.8 0.0000
1851.3 0.0000
1851.8 0.0000
1852.3 0.0000
1852.8 0.0000
1853.3 0.0000
1853.8 0.0000
1854.3 0.0000
1854.8 0.0000
1855.3 0.0000
1855.8 0.0000
1856.3 0.0000
1856.8 0.0000
1857.3 0.0000
1857.8 0.0000
1858.3 0.0000
1858.8 0.0000
1859.3 0.0000
1859.8 0.0000
1860.3 0.0000
1860.8 0.0000
1861.3 0.0000
1861.8 0.0000
1862.3 0.0000
1862.8 0.0000
1863.3 0.0000
1863.8 0.0000
1864.3 0.0000
1864.8 0.0000
1865.3 0.0000
1865.8 0.0000
1866.3 0.0000
1866.8 0.0000
1867.3 0.0000
1867.8 0.0000
1868.3 0.0000
1868.8 0.0000
1869.3 0.0000
1869.8 0.0000
1870.3 0.0000
1870.8 0.0000
1871.3 0.0000
1871.8 0.0000
1872.3 0.0000
1872.8 0.0000
1873.3 0.0000
1873.8 0.0000
1874.3 0.0000
1874.8 0.0000
1875.3 0.0000
1875.8 0.0000
1876.3 0.0000
1876.8 0.0000
1877.3 0.0000
1877.8 0.0000
1878.3 0.0000
1878.8 0.0000
1879.3 0.0000
1879.8 0.0000
1880.3 0.0000
1880.8 0.0000
1881.3 0.0000
1881.8 0.0000
1882.3 0.0000
1882.8 0.0000
1883.3 0.0000
1883.8 0.0000
1884.3 0.0000
1884.8 0.0000
1885.3 0.0000
1885.8 0.0000
1886.3 0.0000
1886.8 0.0000
1887.3 0.0000
1887.8 0.0000
1888.3 0.0000
1888.8 0.0000
1889.3 0.0000
1889.8 0.0000
1890.3 0.0000
1890.8 0.0000
1891.3 0.0000
1891.8 0.0000
1892.3 0.0000
1892.8 0.0000
1893.3 0.0000
1893.8 0.0000
1894.3 0.0000
1894.8 0.0000
1895.3 0.0000
1895.8 0.0000
1896.3 0.0000
1896.8 0.0000
1897.3 0.0000
1897.8 0.0000
1898.3 0.0000
